timestamp,acc_x,acc_y,acc_z,gyro_x,gyro_y,gyro_z
1715846875.251139,-0.11482913,0.12618384,0.26213518,-1.0065409,-1.468599,0.23782009
1715846875.2528095,-0.056590434,0.15866077,0.9523309,0.028762115,0.079228975,0.12170636
1715846875.259757,-0.056590434,0.15866077,0.9523309,0.028762115,0.079228975,0.12170636
1715846875.262448,-0.056590434,0.15866077,0.9523309,0.028762115,0.079228975,0.12170636
1715846875.26515,-0.09517204,0.19553305,0.94799656,0.08628634,-0.14660689,0.054594755
1715846875.267458,-0.09517204,0.19553305,0.94799656,0.08628634,-0.14660689,0.054594755
1715846875.2704725,-0.08003242,0.19602144,0.9349325,0.067111604,-0.155129,0.017310532
1715846875.2726843,-0.08003242,0.19602144,0.9349325,0.067111604,-0.155129,0.017310532
1715846875.2748444,-0.08003242,0.19602144,0.9349325,0.067111604,-0.155129,0.017310532
1715846875.2768633,-0.08003242,0.19602144,0.9349325,0.067111604,-0.155129,0.017310532
1715846875.2788239,-0.08833479,0.18729174,0.9470199,0.020240007,-0.119975306,-0.035952643
1715846875.2822056,-0.08833479,0.18729174,0.9470199,0.020240007,-0.119975306,-0.035952643
1715846875.2850819,-0.08833479,0.18729174,0.9470199,0.020240007,-0.119975306,-0.035952643
1715846875.287552,-0.08833479,0.18729174,0.9470199,-0.023435798,-0.035819486,-0.080693714
1715846875.2900279,-0.09468366,0.17563179,0.9300488,-0.023435798,-0.035819486,-0.080693714
1715846875.2922294,-0.09468366,0.17563179,0.9300488,-0.023435798,-0.035819486,-0.080693714
1715846875.294587,-0.09468366,0.17563179,0.9300488,-0.023435798,-0.035819486,-0.080693714
1715846875.2966387,-0.09468366,0.17563179,0.9300488,-0.0788295,0.19960375,-0.06258423
1715846875.2986534,-0.09468366,0.17563179,0.9300488,-0.0788295,0.19960375,-0.06258423
1715846875.3005757,-0.09468366,0.17563179,0.9300488,-0.0788295,0.19960375,-0.06258423
1715846875.3024447,-0.09468366,0.17563179,0.9300488,-0.0788295,0.19960375,-0.06258423
1715846875.3044176,-0.13662286,0.15579157,0.9591071,-0.0788295,0.19960375,-0.06258423
1715846875.306298,-0.13662286,0.15579157,0.9591071,-0.0788295,0.19960375,-0.06258423
1715846875.3081615,-0.13662286,0.15579157,0.9591071,-0.0788295,0.19960375,-0.06258423
1715846875.310021,-0.13662286,0.15579157,0.9591071,-0.0788295,0.19960375,-0.06258423
1715846875.3119316,-0.13662286,0.15579157,0.9591071,-0.0788295,0.19960375,-0.06258423
1715846875.3137808,-0.13662286,0.15579157,0.9591071,-0.0788295,0.19960375,-0.06258423
1715846875.3156688,-0.13662286,0.15579157,0.9591071,-0.0788295,0.19960375,-0.06258423
1715846875.3175457,-0.13662286,0.15579157,0.9591071,-0.0788295,0.19960375,-0.06258423
1715846875.3193486,-0.13662286,0.15579157,0.9591071,-0.0788295,0.19960375,-0.06258423
1715846875.3211548,-0.13662286,0.15579157,0.9591071,-0.0788295,0.19960375,-0.06258423
1715846875.3230484,-0.13662286,0.15579157,0.9591071,-0.0788295,0.19960375,-0.06258423
1715846875.3249311,-0.13662286,0.15579157,0.9591071,-0.0788295,0.19960375,-0.06258423
1715846875.3268063,-0.13662286,0.15579157,0.9591071,-0.0788295,0.19960375,-0.06258423
1715846875.328742,-0.13662286,0.15579157,0.9591071,-0.0788295,0.19960375,-0.06258423
1715846875.3306212,-0.13662286,0.15579157,0.9591071,-0.0788295,0.19960375,-0.06258423
1715846875.3325279,-0.13662286,0.15579157,0.9591071,-0.0788295,0.19960375,-0.06258423
1715846875.3343995,-0.13662286,0.15579157,0.9591071,-0.0788295,0.19960375,-0.06258423
1715846875.3362758,-0.13662286,0.15579157,0.9591071,-0.0788295,0.19960375,-0.06258423
1715846875.3381503,-0.13662286,0.15579157,0.9591071,-0.0788295,0.19960375,-0.06258423
1715846875.3400223,-0.13662286,0.15579157,0.9591071,-0.0788295,0.19960375,-0.06258423
1715846875.3419123,-0.13662286,0.15579157,0.9591071,-0.0788295,0.19960375,-0.06258423
1715846875.344032,-0.08778537,0.18295741,1.0831543,0.07030739,0.42437434,0.016245268
1715846875.3459764,-0.08778537,0.18295741,1.0831543,0.07030739,0.42437434,0.016245268
1715846875.3479834,0.0015261712,0.1533497,1.1044596,0.20026955,0.70240813,0.024767376
1715846875.3499362,0.0015261712,0.1533497,1.1044596,0.20026955,0.70240813,0.024767376
1715846875.3518245,0.0015261712,0.1533497,1.1044596,0.20026955,0.70240813,0.024767376
1715846875.3537824,0.0015261712,0.1533497,1.1044596,0.20026955,0.70240813,0.024767376
1715846875.3556423,0.0015261712,0.1533497,1.1044596,0.20026955,0.70240813,0.024767376
1715846875.3575282,0.0015261712,0.1533497,1.1044596,0.20026955,0.70240813,0.024767376
1715846875.3593082,0.0015261712,0.1533497,1.1044596,0.20026955,0.70240813,0.024767376
1715846875.3612862,0.0015261712,0.1533497,1.1044596,0.20026955,0.70240813,0.024767376
1715846875.3632972,0.0015261712,0.1533497,1.1044596,0.46658543,1.3703283,0.0013315794
1715846875.365178,0.0015261712,0.1533497,1.1044596,0.46658543,1.3703283,0.0013315794
1715846875.3671525,0.0015261712,0.1533497,1.1044596,0.46658543,1.3703283,0.0013315794
1715846875.3698704,0.13576819,0.07575914,1.2647686,1.0194572,2.047836,-0.14354426
1715846875.3721752,0.13576819,0.07575914,1.2647686,1.0194572,2.047836,-0.14354426
1715846875.3742042,0.12062858,0.053965416,1.3635424,1.0194572,2.047836,-0.14354426
1715846875.3760118,0.12062858,0.053965416,1.3635424,1.0194572,2.047836,-0.14354426
1715846875.3779812,0.12062858,0.053965416,1.3635424,1.0194572,2.047836,-0.14354426
1715846875.379935,0.12062858,0.053965416,1.3635424,1.8322532,2.3738067,-0.3789675
1715846875.3818138,0.12062858,0.053965416,1.3635424,1.8322532,2.3738067,-0.3789675
1715846875.3836582,0.12062858,0.053965416,1.3635424,1.8322532,2.3738067,-0.3789675
1715846875.3855455,0.12062858,0.053965416,1.3635424,1.8322532,2.3738067,-0.3789675
1715846875.387356,0.12062858,0.053965416,1.3635424,1.8322532,2.3738067,-0.3789675
1715846875.3892922,-0.24107401,-0.13466935,1.1242999,1.8322532,2.3738067,-0.3789675
1715846875.3921933,-0.24107401,-0.13466935,1.1242999,1.8322532,2.3738067,-0.3789675
1715846875.3953536,-0.24107401,-0.13466935,1.1242999,1.8322532,2.3738067,-0.3789675
1715846875.398324,-0.24107401,-0.13466935,1.1242999,1.8322532,2.3738067,-0.3789675
1715846875.4015303,-0.839089,0.67121017,0.09022725,0.013848426,-1.8435717,0.15792532
1715846875.4044843,-0.839089,0.67121017,0.09022725,0.013848426,-1.8435717,0.15792532
1715846875.407375,-0.839089,0.67121017,0.09022725,0.013848426,-1.8435717,0.15792532
1715846875.410322,-0.839089,0.67121017,0.09022725,0.013848426,-1.8435717,0.15792532
1715846875.413339,-0.839089,0.67121017,0.09022725,0.013848426,-1.8435717,0.15792532
1715846875.4162831,-0.839089,0.67121017,0.09022725,0.013848426,-1.8435717,0.15792532
1715846875.4192355,-0.839089,0.67121017,0.09022725,0.013848426,-1.8435717,0.15792532
1715846875.4221818,-0.839089,0.67121017,0.09022725,0.013848426,-1.8435717,0.15792532
1715846875.4251385,-0.839089,0.67121017,0.09022725,0.013848426,-1.8435717,0.15792532
1715846875.4283564,-0.839089,0.67121017,0.09022725,0.013848426,-1.8435717,0.15792532
1715846875.4316924,-0.839089,0.67121017,0.09022725,0.013848426,-1.8435717,0.15792532
1715846875.434728,-0.839089,0.67121017,0.09022725,0.013848426,-1.8435717,0.15792532
1715846875.4381618,0.3363071,0.2085971,1.1911461,-0.9544761,-1.8680727,0.8535424
1715846875.4416687,0.26695788,0.20957384,1.2681262,0.020240007,-0.48855647,-0.23728745
1715846875.4448333,0.26695788,0.20957384,1.2681262,0.020240007,-0.48855647,-0.23728745
1715846875.4472966,0.26695788,0.20957384,1.2681262,0.020240007,-0.48855647,-0.23728745
1715846875.4497252,0.26695788,0.20957384,1.2681262,0.020240007,-0.48855647,-0.23728745
1715846875.452072,-0.05762823,0.22752163,0.923761,0.17683375,-0.13915005,-0.44501385
1715846875.4542851,-0.05762823,0.22752163,0.923761,0.17683375,-0.13915005,-0.44501385
1715846875.456509,-0.05762823,0.22752163,0.923761,0.17683375,-0.13915005,-0.44501385
1715846875.4588401,-0.05762823,0.22752163,0.923761,-0.20772639,-0.09334372,-0.2735064
1715846875.461255,-0.05762823,0.22752163,0.923761,-0.20772639,-0.09334372,-0.2735064
1715846875.4634168,-0.05762823,0.22752163,0.923761,-0.20772639,-0.09334372,-0.2735064
1715846875.4657626,-0.212382,0.23722805,0.7658328,-0.20772639,-0.09334372,-0.2735064
1715846875.467974,-0.212382,0.23722805,0.7658328,-0.20772639,-0.09334372,-0.2735064
1715846875.470189,-0.212382,0.23722805,0.7658328,-0.20772639,-0.09334372,-0.2735064
1715846875.4725356,-0.212382,0.23722805,0.7658328,-0.20772639,-0.09334372,-0.2735064
1715846875.4749386,-0.212382,0.23722805,0.7658328,-0.20772639,-0.09334372,-0.2735064
1715846875.4772222,-0.212382,0.23722805,0.7658328,-0.20772639,-0.09334372,-0.2735064
1715846875.4793913,-0.212382,0.23722805,0.7658328,-0.20772639,-0.09334372,-0.2735064
1715846875.482274,-0.212382,0.23722805,0.7658328,-0.20772639,-0.09334372,-0.2735064
1715846875.485157,-0.212382,0.23722805,0.7658328,-0.20772639,-0.09334372,-0.2735064
1715846875.4881043,-0.212382,0.23722805,0.7658328,-0.20772639,-0.09334372,-0.2735064
1715846875.4910765,-0.212382,0.23722805,0.7658328,-0.20772639,-0.09334372,-0.2735064
1715846875.4943726,-0.20505637,0.16256776,1.3335074,-0.63276654,0.3966775,0.07270423
1715846875.497394,-0.20505637,0.16256776,1.3335074,-0.63276654,0.3966775,0.07270423
1715846875.500333,-0.20505637,0.16256776,1.3335074,-0.63276654,0.3966775,0.07270423
1715846875.5032992,-0.20505637,0.16256776,1.3335074,-0.63276654,0.3966775,0.07270423
1715846875.5062253,-0.20505637,0.16256776,1.3335074,-0.63276654,0.3966775,0.07270423
1715846875.5092192,-0.20505637,0.16256776,1.3335074,-0.63276654,0.3966775,0.07270423
1715846875.512422,-0.20505637,0.16256776,1.3335074,-0.63276654,0.3966775,0.07270423
1715846875.5152986,-0.20505637,0.16256776,1.3335074,-0.63276654,0.3966775,0.07270423
1715846875.5182567,-0.20505637,0.16256776,1.3335074,-0.63276654,0.3966775,0.07270423
1715846875.5212123,-0.20505637,0.16256776,1.3335074,-0.63276654,0.3966775,0.07270423
1715846875.5242028,-0.20505637,0.16256776,1.3335074,-0.63276654,0.3966775,0.07270423
1715846875.5271628,-0.20505637,0.16256776,1.3335074,-0.63276654,0.3966775,0.07270423
1715846875.5301719,-0.20505637,0.16256776,1.3335074,-0.63276654,0.3966775,0.07270423
1715846875.5331652,-0.20505637,0.16256776,1.3335074,-0.63276654,0.3966775,0.07270423
1715846875.5361502,-0.20505637,0.16256776,1.3335074,-0.63276654,0.3966775,0.07270423
1715846875.5390906,-0.20505637,0.16256776,1.3335074,-0.63276654,0.3966775,0.07270423
1715846875.5420883,-0.20505637,0.16256776,1.3335074,-0.63276654,0.3966775,0.07270423
1715846875.545239,-0.20505637,0.16256776,1.3335074,-0.63276654,0.3966775,0.07270423
1715846875.5482764,-0.17776844,0.034064144,1.248286,0.36871433,0.04833633,0.30493167
1715846875.5512588,-0.17776844,0.034064144,1.248286,0.36871433,0.04833633,0.30493167
1715846875.5542114,-0.17776844,0.034064144,1.248286,0.36871433,0.04833633,0.30493167
1715846875.557206,-0.17776844,0.034064144,1.248286,0.36871433,0.04833633,0.30493167
1715846875.560214,-0.17776844,0.034064144,1.248286,0.36871433,0.04833633,0.30493167
1715846875.5632615,-0.17776844,0.034064144,1.248286,0.36871433,0.04833633,0.30493167
1715846875.5662515,-0.17776844,0.034064144,1.248286,0.36871433,0.04833633,0.30493167
1715846875.5694647,-0.17776844,0.034064144,1.248286,0.36871433,0.04833633,0.30493167
1715846875.572574,-0.14993107,0.12667221,1.0143545,0.32503852,-0.32024485,0.35180327
1715846875.5756953,-0.0650149,0.07673589,0.9891421,-0.03928159,-0.6526071,0.29640958
1715846875.5788667,-0.0650149,0.07673589,0.9891421,-0.03928159,-0.6526071,0.29640958
1715846875.5819323,-0.021061163,0.036994394,1.0821165,-0.106393196,-0.64088917,0.20266639
1715846875.58488,-0.021061163,0.036994394,1.0821165,-0.106393196,-0.64088917,0.20266639
1715846875.5878334,-0.021061163,0.036994394,1.0821165,-0.106393196,-0.64088917,0.20266639
1715846875.5907922,-0.021061163,0.036994394,1.0821165,-0.106393196,-0.64088917,0.20266639
1715846875.5938368,-0.021061163,0.036994394,1.0821165,-0.106393196,-0.64088917,0.20266639
1715846875.596407,-0.021061163,0.036994394,1.0821165,-0.106393196,-0.64088917,0.20266639
1715846875.5988932,-0.021061163,0.036994394,1.0821165,-0.106393196,-0.64088917,0.20266639
1715846875.6013744,-0.021061163,0.036994394,1.0821165,-0.106393196,-0.64088917,0.20266639
1715846875.6038325,-0.04206128,0.047616545,1.1296109,-0.0478037,-0.45766383,0.12809794
1715846875.606358,-0.04206128,0.047616545,1.1296109,-0.0478037,-0.45766383,0.12809794
1715846875.6088552,-0.04206128,0.047616545,1.1296109,-0.0478037,-0.45766383,0.12809794
1715846875.6115212,-0.04206128,0.047616545,1.1296109,-0.0478037,-0.45766383,0.12809794
1715846875.614021,-0.04206128,0.047616545,1.1296109,-0.0478037,-0.45766383,0.12809794
1715846875.6165783,-0.11519541,0.117454134,1.0477471,0.21092218,-0.10293109,0.3134538
1715846875.6191032,-0.11519541,0.117454134,1.0477471,0.21092218,-0.10293109,0.3134538
1715846875.6216056,-0.11519541,0.117454134,1.0477471,0.21092218,-0.10293109,0.3134538
1715846875.6243489,-0.11519541,0.117454134,1.0477471,0.21092218,-0.10293109,0.3134538
1715846875.626922,-0.11519541,0.117454134,1.0477471,0.21092218,-0.10293109,0.3134538
1715846875.629518,-0.11519541,0.117454134,1.0477471,0.21092218,-0.10293109,0.3134538
1715846875.631739,-0.11519541,0.117454134,1.0477471,0.21092218,-0.10293109,0.3134538
1715846875.6339738,-0.08491617,0.13247167,1.0467703,0.17576848,-0.1934785,0.35499907
1715846875.6361833,-0.08491617,0.13247167,1.0467703,0.17576848,-0.1934785,0.35499907
1715846875.638394,-0.08491617,0.13247167,1.0467703,0.17576848,-0.1934785,0.35499907
1715846875.6406457,-0.08491617,0.13247167,1.0467703,0.17576848,-0.1934785,0.35499907
1715846875.6427984,-0.08491617,0.13247167,1.0467703,0.17576848,-0.1934785,0.35499907
1715846875.6451266,-0.08491617,0.13247167,1.0467703,0.17576848,-0.1934785,0.35499907
1715846875.6473012,-0.08491617,0.13247167,1.0467703,0.17576848,-0.1934785,0.35499907
1715846875.649521,-0.08491617,0.13247167,1.0467703,0.17576848,-0.1934785,0.35499907
1715846875.651729,-0.08491617,0.13247167,1.0467703,0.17576848,-0.1934785,0.35499907
1715846875.653919,-0.08491617,0.13247167,1.0467703,0.17576848,-0.1934785,0.35499907
1715846875.6561284,-0.08491617,0.13247167,1.0467703,0.17576848,-0.1934785,0.35499907
1715846875.6583426,-0.08491617,0.13247167,1.0467703,0.17576848,-0.1934785,0.35499907
1715846875.6606367,-0.08491617,0.13247167,1.0467703,0.17576848,-0.1934785,0.35499907
1715846875.662869,-0.08491617,0.13247167,1.0467703,0.17576848,-0.1934785,0.35499907
1715846875.6651075,-0.08491617,0.13247167,1.0467703,0.17576848,-0.1934785,0.35499907
1715846875.6672912,-0.08491617,0.13247167,1.0467703,0.17576848,-0.1934785,0.35499907
1715846875.6695063,-0.030767612,0.14706185,1.0467703,0.13528846,-0.30533117,0.36778224
1715846875.6717465,0.02637224,0.15627995,1.0022062,0.05219791,-0.3969438,0.24421166
1715846875.6739554,0.02637224,0.15627995,1.0022062,0.05219791,-0.3969438,0.24421166
1715846875.676122,0.02637224,0.15627995,1.0022062,0.05219791,-0.3969438,0.24421166
1715846875.67844,0.02637224,0.15627995,1.0022062,0.05219791,-0.3969438,0.24421166
1715846875.6806748,0.02637224,0.15627995,1.0022062,0.05219791,-0.3969438,0.24421166
1715846875.6828818,0.02637224,0.15627995,1.0022062,0.05219791,-0.3969438,0.24421166
1715846875.6850648,0.02637224,0.15627995,1.0022062,0.05219791,-0.3969438,0.24421166
1715846875.6872804,0.02637224,0.15627995,1.0022062,0.05219791,-0.3969438,0.24421166
1715846875.6894903,0.02637224,0.15627995,1.0022062,0.05219791,-0.3969438,0.24421166
1715846875.6926553,0.02637224,0.15627995,1.0022062,0.05219791,-0.3969438,0.24421166
1715846875.6950889,0.02637224,0.15627995,1.0022062,0.05219791,-0.3969438,0.24421166
1715846875.697351,0.02637224,0.15627995,1.0022062,0.05219791,-0.3969438,0.24421166
1715846875.7000804,0.02637224,0.15627995,1.0022062,0.05219791,-0.3969438,0.24421166
1715846875.702329,0.02637224,0.15627995,1.0022062,0.05219791,-0.3969438,0.24421166
1715846875.7045474,0.0029302489,0.14608513,1.0947533,-0.19494322,-0.13701952,0.05566002
1715846875.7067637,0.0029302489,0.14608513,1.0947533,-0.19494322,-0.13701952,0.05566002
1715846875.7090135,0.0019534992,0.1334484,1.1543349,-0.16405058,-0.005992107,0.036485277
1715846875.712429,0.0019534992,0.1334484,1.1543349,-0.16405058,-0.005992107,0.036485277
1715846875.7153425,0.0019534992,0.1334484,1.1543349,-0.16405058,-0.005992107,0.036485277
1715846875.7183638,-0.018558243,0.1334484,1.1780211,-0.05752423,0.067511074,0.041811593
1715846875.7214665,-0.018558243,0.1334484,1.1780211,-0.05752423,0.067511074,0.041811593
1715846875.7250419,-0.018558243,0.1334484,1.1780211,-0.05752423,0.067511074,0.041811593
1715846875.7289598,-0.018558243,0.1334484,1.1780211,-0.05752423,0.067511074,0.041811593
1715846875.732363,-0.018558243,0.1334484,1.1780211,0.045806333,0.06005423,0.04074633
1715846875.7353003,-0.04248861,0.14217812,1.1673989,0.045806333,0.06005423,0.04074633
1715846875.7388046,-0.04248861,0.14217812,1.1673989,0.045806333,0.06005423,0.04074633
1715846875.7424443,-0.06538118,0.1567683,1.125765,0.119309515,-0.015579479,0.06311686
1715846875.7462823,-0.06538118,0.1567683,1.125765,0.119309515,-0.015579479,0.06311686
1715846875.7496784,-0.06538118,0.1567683,1.125765,0.119309515,-0.015579479,0.06311686
1715846875.7521877,-0.06538118,0.1567683,1.125765,0.119309515,-0.015579479,0.06311686
1715846875.7546632,-0.06538118,0.1567683,1.125765,0.119309515,-0.015579479,0.06311686
1715846875.7569008,-0.06538118,0.1567683,1.125765,0.14700636,-0.050733175,0.07803056
1715846875.7591584,-0.06538118,0.1567683,1.125765,0.14700636,-0.050733175,0.07803056
1715846875.7618332,-0.06538118,0.1567683,1.125765,0.14700636,-0.050733175,0.07803056
1715846875.7641993,-0.06391605,0.15139619,1.0526309,0.15659374,-0.107192144,0.11638004
1715846875.766495,-0.06391605,0.15139619,1.0526309,0.15659374,-0.107192144,0.11638004
1715846875.7688048,-0.06391605,0.15139619,1.0526309,0.15659374,-0.107192144,0.11638004
1715846875.771095,-0.06391605,0.15139619,1.0526309,0.15659374,-0.107192144,0.11638004
1715846875.7734547,-0.06391605,0.15139619,1.0526309,0.15659374,-0.107192144,0.11638004
1715846875.775692,-0.06391605,0.15139619,1.0526309,0.15659374,-0.107192144,0.11638004
1715846875.778115,-0.06391605,0.15139619,1.0526309,0.15659374,-0.107192144,0.11638004
1715846875.7803876,-0.06391605,0.15139619,1.0526309,0.15659374,-0.107192144,0.11638004
1715846875.7825992,-0.06391605,0.15139619,1.0526309,0.15659374,-0.107192144,0.11638004
1715846875.7849216,-0.06391605,0.15139619,1.0526309,0.15659374,-0.107192144,0.11638004
1715846875.787661,-0.06391605,0.15139619,1.0526309,0.15659374,-0.107192144,0.11638004
1715846875.7899315,-0.06391605,0.15139619,1.0526309,0.15659374,-0.107192144,0.11638004
1715846875.7927048,-0.02441874,0.16305614,0.9978719,0.10546109,0.02916159,0.1206411
1715846875.795444,-0.02441874,0.16305614,0.9978719,0.079894766,0.08455529,0.10040109
1715846875.7981515,-0.02441874,0.16305614,0.9978719,0.079894766,0.08455529,0.10040109
1715846875.800891,-0.02441874,0.16305614,0.9978719,0.079894766,0.08455529,0.10040109
1715846875.8036146,-0.02441874,0.16305614,0.9978719,0.079894766,0.08455529,0.10040109
1715846875.8059602,-0.02441874,0.16305614,0.9978719,0.079894766,0.08455529,0.10040109
1715846875.808691,-0.02441874,0.16305614,0.9978719,0.079894766,0.08455529,0.10040109
1715846875.8115737,-0.02441874,0.16305614,0.9978719,0.079894766,0.08455529,0.10040109
1715846875.8139198,-0.02441874,0.16305614,0.9978719,0.079894766,0.08455529,0.10040109
1715846875.8166585,-0.02441874,0.16305614,0.9978719,0.079894766,0.08455529,0.10040109
1715846875.8193731,-0.02441874,0.16305614,0.9978719,0.079894766,0.08455529,0.10040109
1715846875.8220882,-0.02441874,0.16305614,0.9978719,0.079894766,0.08455529,0.10040109
1715846875.8246949,-0.02441874,0.16305614,0.9978719,0.079894766,0.08455529,0.10040109
1715846875.827294,-0.02441874,0.16305614,0.9978719,0.079894766,0.08455529,0.10040109
1715846875.82951,-0.02441874,0.16305614,0.9978719,0.079894766,0.08455529,0.10040109
1715846875.8319871,-0.02441874,0.16305614,0.9978719,0.079894766,0.08455529,0.10040109
1715846875.8343077,-0.02441874,0.16305614,0.9978719,0.079894766,0.08455529,0.10040109
1715846875.838476,-0.07575914,0.15719564,0.99347645,0.08748477,0.08455529,0.10466214
1715846875.842446,-0.07575914,0.15719564,0.99347645,0.08748477,0.08455529,0.10466214
1715846875.846389,-0.07575914,0.15719564,0.99347645,0.08748477,0.08455529,0.10466214
1715846875.8500962,-0.081131265,0.15866077,0.9828543,0.09920266,0.077098444,0.12277162
1715846875.8535218,-0.081131265,0.15866077,0.9828543,0.09920266,0.077098444,0.12277162
1715846875.8570015,-0.081131265,0.15866077,0.9828543,0.09920266,0.077098444,0.12277162
1715846875.8609517,-0.06702944,0.16452126,0.95330757,0.14607427,0.10266477,0.19201376
1715846875.8640351,-0.06702944,0.16452126,0.95330757,0.14607427,0.10266477,0.19201376
1715846875.8663862,-0.06702944,0.16452126,0.95330757,0.14607427,0.10266477,0.19201376
1715846875.8686812,-0.06702944,0.16452126,0.95330757,0.14607427,0.10266477,0.19201376
1715846875.8710406,-0.06702944,0.16452126,0.95330757,0.14607427,0.10266477,0.19201376
1715846875.873412,-0.06702944,0.16452126,0.95330757,0.14607427,0.10266477,0.19201376
1715846875.8758788,-0.06702944,0.16452126,0.95330757,0.14607427,0.10266477,0.19201376
1715846875.8784409,-0.06702944,0.16452126,0.95330757,0.14607427,0.10266477,0.19201376
1715846875.8808386,-0.06702944,0.16452126,0.95330757,0.14607427,0.10266477,0.19201376
1715846875.8831434,-0.06702944,0.16452126,0.95330757,0.14607427,0.10266477,0.19201376
1715846875.885581,-0.06702944,0.16452126,0.95330757,0.14607427,0.10266477,0.19201376
1715846875.8879366,-0.06702944,0.16452126,0.95330757,0.14607427,0.10266477,0.19201376
1715846875.8902361,-0.06702944,0.16452126,0.95330757,0.14607427,0.10266477,0.19201376
1715846875.8926246,-0.06702944,0.16452126,0.95330757,0.14607427,0.10266477,0.19201376
1715846875.8953598,-0.06702944,0.16452126,0.95330757,0.14607427,0.10266477,0.19201376
1715846875.8979106,-0.06702944,0.16452126,0.95330757,0.14607427,0.10266477,0.19201376
1715846875.9004772,-0.020633835,0.19748656,0.9392669,0.16631427,0.06325002,0.16218637
1715846875.902855,-0.020633835,0.19748656,0.9392669,0.16631427,0.06325002,0.16218637
1715846875.9052098,-0.020633835,0.19748656,0.9392669,0.16631427,0.06325002,0.16218637
1715846875.9075634,-0.020633835,0.19748656,0.9392669,0.16631427,0.06325002,0.16218637
1715846875.910005,-0.020633835,0.19748656,0.9392669,0.13435636,0.008921582,0.12703268
1715846875.912482,-0.039680455,0.20035577,0.9130778,0.13435636,0.008921582,0.12703268
1715846875.9148479,-0.039680455,0.20035577,0.9130778,0.13435636,0.008921582,0.12703268
1715846875.9172957,-0.039680455,0.20035577,0.9130778,0.13435636,0.008921582,0.12703268
1715846875.9202006,-0.039680455,0.20035577,0.9130778,0.13435636,0.008921582,0.12703268
1715846875.922637,-0.052378196,0.20713198,0.90678996,0.13435636,0.008921582,0.12703268
1715846875.9250364,-0.052378196,0.20713198,0.90678996,0.07044055,-0.028362641,0.12277162
1715846875.9275563,-0.052378196,0.20713198,0.90678996,-0.010519478,-0.04540686,0.13555479
1715846875.929983,-0.052378196,0.20713198,0.90678996,-0.010519478,-0.04540686,0.13555479
1715846875.9324818,-0.06263407,0.22459136,0.95471174,-0.010519478,-0.04540686,0.13555479
1715846875.9350352,-0.06263407,0.22459136,0.95471174,-0.010519478,-0.04540686,0.13555479
1715846875.93741,-0.06263407,0.22459136,0.95471174,-0.010519478,-0.04540686,0.13555479
1715846875.939943,-0.013796588,0.22703324,1.0719216,-0.020106848,-0.043276332,0.13129373
1715846875.942421,-0.013796588,0.22703324,1.0719216,-0.020106848,-0.043276332,0.13129373
1715846875.944947,-0.013796588,0.22703324,1.0719216,-0.020106848,-0.043276332,0.13129373
1715846875.947298,-0.013796588,0.22703324,1.0719216,-0.020106848,-0.043276332,0.13129373
1715846875.9496207,-0.013796588,0.22703324,1.0719216,-0.020106848,-0.043276332,0.13129373
1715846875.951962,-0.013796588,0.22703324,1.0719216,-0.020106848,-0.043276332,0.13129373
1715846875.9543512,-0.0055552637,0.23722805,1.1368755,0.050200544,-0.027297378,0.10146635
1715846875.9567888,-0.00067151536,0.22800998,1.1499395,0.050200544,-0.027297378,0.10146635
1715846875.9592774,-0.00067151536,0.22800998,1.1499395,0.050200544,-0.027297378,0.10146635
1715846875.9623218,-0.00067151536,0.22800998,1.1499395,0.050200544,-0.027297378,0.10146635
1715846875.9652927,-0.00067151536,0.22800998,1.1499395,0.050200544,-0.027297378,0.10146635
1715846875.9680445,-0.00067151536,0.22800998,1.1499395,0.050200544,-0.027297378,0.10146635
1715846875.9704003,-0.00067151536,0.22800998,1.1499395,0.050200544,-0.027297378,0.10146635
1715846875.9730961,-0.00067151536,0.22800998,1.1499395,0.050200544,-0.027297378,0.10146635
1715846875.9754522,-0.00067151536,0.22800998,1.1499395,0.050200544,-0.027297378,0.10146635
1715846875.9787781,-0.00067151536,0.22800998,1.1499395,0.050200544,-0.027297378,0.10146635
1715846875.98165,-0.00067151536,0.22800998,1.1499395,0.050200544,-0.027297378,0.10146635
1715846875.9845054,-0.00067151536,0.22800998,1.1499395,0.050200544,-0.027297378,0.10146635
1715846875.9872515,-0.00067151536,0.22800998,1.1499395,0.050200544,-0.027297378,0.10146635
1715846875.9899979,-0.00067151536,0.22800998,1.1499395,0.050200544,-0.027297378,0.10146635
1715846875.9924498,-0.00067151536,0.22800998,1.1499395,0.050200544,-0.027297378,0.10146635
1715846875.9954295,-0.016787885,0.23820482,1.1189277,0.35273537,-0.17643428,0.10359688
1715846875.9978745,-0.016787885,0.23820482,1.1189277,0.35273537,-0.17643428,0.10359688
1715846876.0007737,-0.016787885,0.23820482,1.1189277,0.35273537,-0.17643428,0.10359688
1715846876.0031545,-0.016787885,0.23820482,1.1189277,0.35273537,-0.17643428,0.10359688
1715846876.0061016,-0.008790746,0.2576177,1.1552505,0.36112434,-0.24035008,0.097205296
1715846876.0090046,-0.008790746,0.2576177,1.1552505,0.36112434,-0.24035008,0.097205296
1715846876.0120442,-0.008790746,0.2576177,1.1552505,0.36112434,-0.24035008,0.097205296
1715846876.0144835,-0.021000117,0.2556642,1.2695913,0.54115385,-0.36392066,0.04394212
1715846876.0168831,-0.021000117,0.2556642,1.2695913,0.54115385,-0.36392066,0.04394212
1715846876.0192688,-0.021000117,0.2556642,1.2695913,0.54115385,-0.36392066,0.04394212
1715846876.0227292,-0.021000117,0.2556642,1.2695913,0.54115385,-0.36392066,0.04394212
1715846876.0263886,-0.021000117,0.2556642,1.2695913,0.54115385,-0.36392066,0.04394212
1715846876.0306842,0.015566948,0.17612016,1.2487743,0.69029075,-0.50666595,0.060986336
1715846876.0345294,-0.079605095,0.18533823,1.1780211,0.73290133,-0.607866,0.11318425
1715846876.0381825,-0.079605095,0.18533823,1.1780211,0.73290133,-0.607866,0.11318425
1715846876.0416856,-0.12691641,0.24888802,1.127169,0.76379395,-0.65580285,0.18668744
1715846876.0453248,-0.12691641,0.24888802,1.127169,0.76379395,-0.65580285,0.18668744
1715846876.048747,-0.12691641,0.24888802,1.127169,0.76379395,-0.65580285,0.18668744
1715846876.0521364,-0.12691641,0.24888802,1.127169,0.76379395,-0.65580285,0.18668744
1715846876.0554204,-0.12691641,0.24888802,1.127169,0.76379395,-0.65580285,0.18668744
1715846876.058801,-0.12691641,0.24888802,1.127169,0.76379395,-0.65580285,0.18668744
1715846876.0625293,-0.12691641,0.24888802,1.127169,0.76379395,-0.65580285,0.18668744
1715846876.0659277,-0.12691641,0.24888802,1.127169,0.76379395,-0.65580285,0.18668744
1715846876.0692778,-0.12691641,0.24888802,1.127169,0.76379395,-0.65580285,0.18668744
1715846876.0726664,-0.12691641,0.24888802,1.127169,0.76379395,-0.65580285,0.18668744
1715846876.076018,-0.12691641,0.24888802,1.127169,0.76379395,-0.65580285,0.18668744
1715846876.0795166,-0.12691641,0.24888802,1.127169,0.76379395,-0.65580285,0.18668744
1715846876.0830479,0.27629805,0.2871644,1.2700797,1.0077393,-1.7551548,-0.051931597
1715846876.0864525,0.27629805,0.2871644,1.2700797,1.0077393,-1.7551548,-0.051931597
1715846876.0899746,0.3158564,0.26048693,1.297673,1.1717899,-1.9916433,-0.22663482
1715846876.0927908,0.3158564,0.26048693,1.297673,1.1717899,-1.9916433,-0.22663482
1715846876.0958798,0.3158564,0.26048693,1.297673,1.1717899,-1.9916433,-0.22663482
1715846876.098224,0.3158564,0.26048693,1.297673,1.1717899,-1.9916433,-0.22663482
1715846876.1006482,0.3158564,0.26048693,1.297673,1.1717899,-1.9916433,-0.22663482
1715846876.103365,0.26994917,0.11843089,1.2347337,1.1717899,-1.9916433,-0.22663482
1715846876.1061878,0.26994917,0.11843089,1.2347337,1.4210615,-2.1184096,-0.4343612
1715846876.1085496,0.36609796,0.034064144,1.4236126,1.4210615,-2.1184096,-0.4343612
1715846876.1110487,0.36609796,0.034064144,1.4236126,1.6405058,-1.5037526,-0.49082017
1715846876.1133816,0.36609796,0.034064144,1.4236126,1.6405058,-1.5037526,-0.49082017
1715846876.1156557,0.36609796,0.034064144,1.4236126,1.6405058,-1.5037526,-0.49082017
1715846876.1179407,0.36609796,0.034064144,1.4236126,1.6405058,-1.5719295,-0.49934226
1715846876.120357,0.36609796,0.034064144,1.4236126,1.6405058,-1.5719295,-0.49934226
1715846876.122685,0.36609796,0.034064144,1.4236126,1.6405058,-1.5719295,-0.49934226
1715846876.1250365,0.36609796,0.034064144,1.4236126,1.6405058,-1.5719295,-0.49934226
1715846876.1274476,0.36609796,0.034064144,1.4236126,1.6405058,-1.5719295,-0.49934226
1715846876.129834,0.36609796,0.034064144,1.4236126,1.6405058,-1.5719295,-0.49934226
1715846876.1321652,0.36609796,0.034064144,1.4236126,1.6405058,-1.5719295,-0.49934226
1715846876.134488,0.36609796,0.034064144,1.4236126,1.6405058,-1.5719295,-0.49934226
1715846876.1368263,0.36609796,0.034064144,1.4236126,1.6405058,-1.5719295,-0.49934226
1715846876.139264,0.34955427,-0.14584093,0.9111853,1.6138742,-1.0030788,-0.3938812
1715846876.1416018,0.34955427,-0.14584093,0.9111853,1.6138742,-1.0030788,-0.3938812
1715846876.14408,0.34955427,-0.14584093,0.9111853,1.6138742,-1.0030788,-0.3938812
1715846876.1464446,0.34955427,-0.14584093,0.9111853,1.6138742,-1.0030788,-0.3938812
1715846876.1487865,0.34955427,-0.14584093,0.9111853,1.6138742,-1.0030788,-0.3938812
1715846876.151113,0.34955427,-0.14584093,0.9111853,1.6138742,-1.0030788,-0.3938812
1715846876.1534665,0.34955427,-0.14584093,0.9111853,1.6138742,-1.0030788,-0.3938812
1715846876.1557946,0.34955427,-0.14584093,0.9111853,1.6138742,-1.0030788,-0.3938812
1715846876.1581218,0.34955427,-0.14584093,0.9111853,1.6138742,-1.0030788,-0.3938812
1715846876.1604795,0.34955427,-0.14584093,0.9111853,1.6138742,-1.0030788,-0.3938812
1715846876.1629145,0.34955427,-0.14584093,0.9111853,1.6138742,-1.0030788,-0.3938812
1715846876.1652641,0.34955427,-0.14584093,0.9111853,1.6138742,-1.0030788,-0.3938812
1715846876.1675782,0.34955427,-0.14584093,0.9111853,1.6138742,-1.0030788,-0.3938812
1715846876.1699092,0.34955427,-0.14584093,0.9111853,1.6138742,-1.0030788,-0.3938812
1715846876.1722364,0.34955427,-0.14584093,0.9111853,1.6138742,-1.0030788,-0.3938812
1715846876.174634,0.40077257,-0.62341046,0.47866836,0.60613495,-0.5705818,-0.5430181
1715846876.1770253,0.40077257,-0.62341046,0.47866836,0.60613495,-0.5705818,-0.5430181
1715846876.1795418,0.31976342,-0.78927475,0.36048165,0.27057692,-0.7463502,-0.6271739
1715846876.1818871,0.31976342,-0.78927475,0.36048165,0.27057692,-0.7463502,-0.6271739
1715846876.1842146,0.31976342,-0.78927475,0.36048165,0.27057692,-0.7463502,-0.6271739
1715846876.1865807,0.31976342,-0.78927475,0.36048165,0.27057692,-0.7463502,-0.6271739
1715846876.188931,0.31976342,-0.78927475,0.36048165,0.27057692,-0.7463502,-0.6271739
1715846876.1912267,0.31976342,-0.78927475,0.36048165,0.27057692,-0.7463502,-0.6271739
1715846876.1939812,0.22117274,-0.83194643,0.30383018,0.038349487,-0.89016086,-0.595216
1715846876.1973584,0.22117274,-0.83194643,0.30383018,0.038349487,-0.89016086,-0.595216
1715846876.200612,0.22117274,-0.83194643,0.30383018,0.038349487,-0.89016086,-0.595216
1715846876.2039905,0.18106496,-0.8581356,0.2035302,-0.26312009,-1.040363,-0.47377595
1715846876.2071338,0.18106496,-0.8581356,0.2035302,-0.26312009,-1.040363,-0.47377595
1715846876.2104533,0.18106496,-0.8581356,0.2035302,-0.26312009,-1.040363,-0.47377595
1715846876.213662,0.17227422,-0.88578975,0.121178,-0.663526,-1.0350367,-0.29268116
1715846876.2168539,0.17227422,-0.88578975,0.121178,-0.663526,-1.0350367,-0.29268116
1715846876.2199469,0.17227422,-0.88578975,0.121178,-0.663526,-1.0350367,-0.29268116
1715846876.223153,0.17227422,-0.88578975,0.121178,-0.8712524,-0.979643,-0.21065587
1715846876.2262976,0.17227422,-0.88578975,0.121178,-0.8712524,-0.979643,-0.21065587
1715846876.2295454,0.17227422,-0.88578975,0.121178,-0.8712524,-0.979643,-0.21065587
1715846876.232811,0.17227422,-0.88578975,0.121178,-0.8712524,-0.979643,-0.21065587
1715846876.2359507,0.17227422,-0.88578975,0.121178,-0.8712524,-0.979643,-0.21065587
1715846876.2390878,0.17227422,-0.88578975,0.121178,-0.8712524,-0.979643,-0.21065587
1715846876.2422523,0.17227422,-0.88578975,0.121178,-0.8712524,-0.979643,-0.21065587
1715846876.2456565,0.17227422,-0.88578975,0.121178,-0.8712524,-0.979643,-0.21065587
1715846876.2488415,0.17227422,-0.88578975,0.121178,-0.8712524,-0.979643,-0.21065587
1715846876.2520492,0.17227422,-0.88578975,0.121178,-0.8712524,-0.979643,-0.21065587
1715846876.2552943,0.17227422,-0.88578975,0.121178,-0.8712524,-0.979643,-0.21065587
1715846876.258414,0.17227422,-0.88578975,0.121178,-0.8712524,-0.979643,-0.21065587
1715846876.2618368,0.17227422,-0.88578975,0.121178,-0.8712524,-0.979643,-0.21065587
1715846876.2650259,0.17227422,-0.88578975,0.121178,-0.8712524,-0.979643,-0.21065587
1715846876.2683442,-0.10207033,-0.6496606,0.15463167,-2.486192,-0.38416067,0.5584644
1715846876.2714972,-0.10207033,-0.6496606,0.15463167,-2.486192,-0.38416067,0.5584644
1715846876.2749524,-0.10207033,-0.6496606,0.15463167,-2.7056363,-0.490687,0.6958834
1715846876.277626,-0.10207033,-0.6496606,0.15463167,-2.7056363,-0.490687,0.6958834
1715846876.2801723,-0.10207033,-0.6496606,0.15463167,-2.7056363,-0.490687,0.6958834
1715846876.282467,-0.10207033,-0.6496606,0.15463167,-2.7056363,-0.490687,0.6958834
1715846876.2848232,-0.14065194,-0.44985422,0.30138832,-3.5088449,-1.2001525,1.2892352
1715846876.2870932,-0.14065194,-0.44985422,0.30138832,-3.5088449,-1.2001525,1.2892352
1715846876.2894666,-0.105000585,-0.38636553,0.46505493,-3.7570512,-1.5548853,1.5331805
1715846876.2917347,-0.105000585,-0.38636553,0.46505493,-3.7570512,-1.5548853,1.5331805
1715846876.2941077,-0.105000585,-0.38636553,0.46505493,-3.7570512,-1.5548853,1.5331805
1715846876.296363,-0.105000585,-0.38636553,0.46505493,-3.7570512,-1.5548853,1.5331805
1715846876.2986524,-0.105000585,-0.38636553,0.46505493,-3.7570512,-1.5548853,1.5331805
1715846876.3009336,-0.105000585,-0.38636553,0.46505493,-3.7570512,-1.5548853,1.5331805
1715846876.3032277,-0.105000585,-0.38636553,0.46505493,-3.7570512,-1.5548853,1.5331805
1715846876.3055956,-0.105000585,-0.38636553,0.46505493,-3.7570512,-1.5548853,1.5331805
1715846876.3079507,0.22105063,-0.23503038,0.97558975,-4.1064577,-2.701109,2.1062922
1715846876.3102393,0.22105063,-0.23503038,0.97558975,-4.1064577,-2.701109,2.1062922
1715846876.3125339,0.22105063,-0.23503038,0.97558975,-4.1064577,-2.701109,2.1062922
1715846876.3148174,0.22105063,-0.23503038,0.97558975,-4.1064577,-2.701109,2.1062922
1715846876.3171062,0.22105063,-0.23503038,0.97558975,-4.1064577,-2.701109,2.1062922
1715846876.3194168,0.35675782,-0.20401858,1.0952415,-4.1064577,-2.701109,2.1062922
1715846876.3216963,0.35675782,-0.20401858,1.0952415,-4.1064577,-2.701109,2.1062922
1715846876.3239706,0.35675782,-0.20401858,1.0952415,-4.1064577,-2.701109,2.1062922
1715846876.3261917,0.35675782,-0.20401858,1.0952415,-4.1064577,-2.701109,2.1062922
1715846876.3285239,0.35675782,-0.20401858,1.0952415,-4.1064577,-2.701109,2.1062922
1715846876.330803,0.35675782,-0.20401858,1.0952415,-4.1064577,-2.701109,2.1062922
1715846876.333127,0.35675782,-0.20401858,1.0952415,-4.1064577,-2.701109,2.1062922
1715846876.3353543,0.35675782,-0.20401858,1.0952415,-4.1064577,-2.701109,2.1062922
1715846876.3376741,0.35675782,-0.20401858,1.0952415,-4.1064577,-2.701109,2.1062922
1715846876.3399394,0.35675782,-0.20401858,1.0952415,-4.1064577,-2.701109,2.1062922
1715846876.3422334,0.35675782,-0.20401858,1.0952415,-4.1064577,-2.701109,2.1062922
1715846876.3446615,0.35675782,-0.20401858,1.0952415,-4.1064577,-2.701109,2.1062922
1715846876.3469453,0.35675782,-0.20401858,1.0952415,-4.1064577,-2.701109,2.1062922
1715846876.349269,0.35675782,-0.20401858,1.0952415,-4.1064577,-2.701109,2.1062922
1715846876.3515494,0.35675782,-0.20401858,1.0952415,-4.1064577,-2.701109,2.1062922
1715846876.3541188,0.84885645,0.4888632,1.7572947,-3.481148,-2.268612,2.1712735
1715846876.3569794,0.84885645,0.4888632,1.7572947,-3.481148,-2.268612,2.1712735
1715846876.359657,0.9098423,0.7938532,1.9079583,-3.3991227,-1.9319886,2.0743344
1715846876.3621542,0.973331,1.2506669,2.1951838,-3.3202932,-1.380182,1.8964354
1715846876.3645248,0.973331,1.2506669,2.1951838,-3.3202932,-1.380182,1.8964354
1715846876.3673968,0.973331,1.2506669,2.1951838,-3.3202932,-1.380182,1.8964354
1715846876.3703127,0.98450255,1.6836722,2.6068227,-3.3202932,-1.380182,1.8964354
1715846876.3733873,0.98450255,1.6836722,2.6068227,-3.1509163,-0.72717553,1.6492943
1715846876.3760614,0.96551704,2.1840732,3.196291,-3.1509163,-0.72717553,1.6492943
1715846876.378516,0.96551704,2.1840732,3.196291,-2.6385245,0.045140542,1.2977573
1715846876.3807771,0.96551704,2.1840732,3.196291,-2.6385245,0.045140542,1.2977573
1715846876.383068,0.96551704,2.1840732,3.196291,-2.6385245,0.045140542,1.2977573
1715846876.3853452,0.96551704,2.1840732,3.196291,-2.6385245,0.045140542,1.2977573
1715846876.3876164,0.96551704,2.1840732,3.196291,-2.6385245,0.045140542,1.2977573
1715846876.3898878,0.96551704,2.1840732,3.196291,-2.6385245,0.045140542,1.2977573
1715846876.3921716,0.96551704,2.1840732,3.196291,-2.6385245,0.045140542,1.2977573
1715846876.394676,0.93621457,2.5157409,3.71989,-1.8939054,0.39561224,1.0250498
1715846876.397016,0.93621457,2.5157409,3.71989,-1.8939054,0.39561224,1.0250498
1715846876.3993895,1.0245492,2.6485786,4.176154,-0.7711176,0.47657228,0.7342329
1715846876.4016669,1.0245492,2.6485786,4.176154,-0.7711176,0.47657228,0.7342329
1715846876.40393,1.0245492,2.6485786,4.176154,-0.7711176,0.47657228,0.7342329
1715846876.4061584,1.0245492,2.6485786,4.176154,-0.7711176,0.47657228,0.7342329
1715846876.4084604,1.1153259,2.6364303,4.394091,0.72238183,0.6480797,0.33582434
1715846876.411004,1.1153259,2.6364303,4.394091,0.72238183,0.6480797,0.33582434
1715846876.4132752,1.1153259,2.6364303,4.394091,0.72238183,0.6480797,0.33582434
1715846876.4155293,1.1153259,2.6364303,4.394091,0.72238183,0.6480797,0.33582434
1715846876.417853,1.1153259,2.6364303,4.394091,0.72238183,0.6480797,0.33582434
1715846876.420125,1.1153259,2.6364303,4.394091,0.72238183,0.6480797,0.33582434
1715846876.422388,1.1153259,2.6364303,4.394091,0.72238183,0.6480797,0.33582434
1715846876.424666,1.1153259,2.6364303,4.394091,0.72238183,0.6480797,0.33582434
1715846876.4268868,1.1153259,2.6364303,4.394091,0.72238183,0.6480797,0.33582434
1715846876.4296753,1.1153259,2.6364303,4.394091,0.72238183,0.6480797,0.33582434
1715846876.4319766,1.1153259,2.6364303,4.394091,0.72238183,0.6480797,0.33582434
1715846876.4342582,1.1153259,2.6364303,4.394091,0.72238183,0.6480797,0.33582434
1715846876.4367435,1.1226516,2.5399764,4.278835,0.72238183,0.6480797,0.33582434
1715846876.4390538,1.1226516,2.5399764,4.278835,0.72238183,0.6480797,0.33582434
1715846876.4415069,0.9240052,2.2650213,3.5673337,3.40365,1.0752504,-0.41092542
1715846876.4438038,0.9240052,2.2650213,3.5673337,3.40365,1.0752504,-0.41092542
1715846876.446238,0.9240052,2.2650213,3.5673337,3.40365,1.0752504,-0.41092542
1715846876.4486778,0.89030725,1.7685273,2.9826882,5.120855,0.46272385,-0.89775085
1715846876.450955,0.89030725,1.7685273,2.9826882,5.120855,0.46272385,-0.89775085
1715846876.4532828,0.89030725,1.7685273,2.9826882,5.120855,0.46272385,-0.89775085
1715846876.4556062,0.89030725,1.7685273,2.9826882,5.120855,0.46272385,-0.89775085
1715846876.4579122,0.89030725,1.7685273,2.9826882,5.120855,0.46272385,-0.89775085
1715846876.4601672,0.89030725,1.7685273,2.9826882,5.120855,0.46272385,-0.89775085
1715846876.4626005,0.95471174,1.3360103,2.491078,5.6524215,-0.062451076,-1.241831
1715846876.4649537,0.95471174,1.3360103,2.491078,5.6524215,-0.062451076,-1.241831
1715846876.4672325,0.95471174,1.3360103,2.491078,5.6524215,-0.062451076,-1.241831
1715846876.4695122,0.95471174,1.3360103,2.491078,5.6524215,-0.062451076,-1.241831
1715846876.471991,0.9610605,1.0891979,2.3879087,5.811146,-0.4182491,-1.4676669
1715846876.4749663,0.9610605,1.0891979,2.3879087,5.811146,-0.4182491,-1.4676669
1715846876.4774172,0.9610605,1.0891979,2.3879087,5.811146,-0.4182491,-1.4676669
1715846876.4797125,0.9610605,1.0891979,2.3879087,5.811146,-0.4182491,-1.4676669
1715846876.4820056,0.9610605,1.0891979,2.3879087,5.811146,-0.4182491,-1.4676669
1715846876.4842703,0.9610605,1.0891979,2.3879087,5.811146,-0.4182491,-1.4676669
1715846876.4864843,0.9610605,1.0891979,2.3879087,5.811146,-0.4182491,-1.4676669
1715846876.488776,0.9610605,1.0891979,2.3879087,5.811146,-0.4182491,-1.4676669
1715846876.4910557,0.9610605,1.0891979,2.3879087,5.811146,-0.4182491,-1.4676669
1715846876.4933333,0.9610605,1.0891979,2.3879087,5.811146,-0.4182491,-1.4676669
1715846876.4956226,0.9610605,1.0891979,2.3879087,5.811146,-0.4182491,-1.4676669
1715846876.4978964,0.9610605,1.0891979,2.3879087,5.811146,-0.4182491,-1.4676669
1715846876.5002193,0.9610605,1.0891979,2.3879087,5.811146,-0.4182491,-1.4676669
1715846876.502481,0.9610605,1.0891979,2.3879087,5.811146,-0.4182491,-1.4676669
1715846876.504764,0.9610605,1.0891979,2.3879087,5.811146,-0.4182491,-1.4676669
1715846876.507037,0.9610605,1.0891979,2.3879087,5.811146,-0.4182491,-1.4676669
1715846876.5092702,0.9610605,1.0891979,2.3879087,5.811146,-0.4182491,-1.4676669
1715846876.511773,0.9610605,1.0891979,2.3879087,5.811146,-0.4182491,-1.4676669
1715846876.5140479,0.9610605,1.0891979,2.3879087,5.811146,-0.4182491,-1.4676669
1715846876.5162966,0.9610605,1.0891979,2.3879087,5.811146,-0.4182491,-1.4676669
1715846876.5185506,0.9610605,1.0891979,2.3879087,5.811146,-0.4182491,-1.4676669
1715846876.5208344,0.9610605,1.0891979,2.3879087,5.811146,-0.4182491,-1.4676669
1715846876.5232353,0.64868385,-0.03333158,1.8052773,5.711011,-0.66432494,-2.6128252
1715846876.525531,0.64868385,-0.03333158,1.8052773,5.711011,-0.66432494,-2.6128252
1715846876.5279741,0.64868385,-0.03333158,1.8052773,5.711011,-0.66432494,-2.6128252
1715846876.5302494,0.64868385,-0.03333158,1.8052773,5.711011,-0.66432494,-2.6128252
1715846876.5325315,0.64868385,-0.03333158,1.8052773,5.711011,-0.66432494,-2.6128252
1715846876.5348518,0.64868385,-0.03333158,1.8052773,5.711011,-0.66432494,-2.6128252
1715846876.537131,0.64868385,-0.03333158,1.8052773,5.711011,-0.66432494,-2.6128252
1715846876.5393443,0.64868385,-0.03333158,1.8052773,5.711011,-0.66432494,-2.6128252
1715846876.5416114,0.64868385,-0.03333158,1.8052773,5.711011,-0.66432494,-2.6128252
1715846876.5440083,0.64868385,-0.03333158,1.8052773,5.711011,-0.66432494,-2.6128252
1715846876.5463479,0.64868385,-0.03333158,1.8052773,5.711011,-0.66432494,-2.6128252
1715846876.5486374,0.64868385,-0.03333158,1.8052773,5.711011,-0.66432494,-2.6128252
1715846876.550972,0.67890203,-0.16281196,1.5533981,5.601289,-0.24461114,-2.0013638
1715846876.553324,0.67890203,-0.16281196,1.5533981,5.601289,-0.24461114,-2.0013638
1715846876.5557652,0.42311573,-0.48184282,1.6100497,5.601289,-0.24461114,-2.0013638
1715846876.5580823,0.42311573,-0.48184282,1.6100497,5.601289,-0.24461114,-2.0013638
1715846876.5605547,0.4431391,-0.6854951,1.5059037,5.6566825,-0.5237102,-1.60189
1715846876.5629394,0.4431391,-0.6854951,1.5059037,5.6566825,-0.5237102,-1.60189
1715846876.5653026,0.4431391,-0.6854951,1.5059037,5.6566825,-0.5237102,-1.60189
1715846876.56757,0.4431391,-0.6854951,1.5059037,5.6566825,-0.5237102,-1.60189
1715846876.5699978,0.4431391,-0.6854951,1.5059037,5.6566825,-0.5237102,-1.60189
1715846876.5730543,0.5949626,-0.8780368,1.3315539,5.6566825,-0.5237102,-1.60189
1715846876.5758255,0.5949626,-0.8780368,1.3315539,5.6694655,-1.3088094,-1.3824457
1715846876.5782957,0.5949626,-0.8780368,1.3315539,5.6694655,-1.3088094,-1.3824457
1715846876.580789,0.5949626,-0.8780368,1.3315539,5.6694655,-1.3088094,-1.3824457
1715846876.583442,0.5949626,-0.8780368,1.3315539,5.6694655,-1.3088094,-1.3824457
1715846876.5862083,0.5949626,-0.8780368,1.3315539,5.6694655,-1.3088094,-1.3824457
1715846876.5889633,0.5949626,-0.8780368,1.3315539,5.6694655,-1.3088094,-1.3824457
1715846876.591233,0.5949626,-0.8780368,1.3315539,5.6694655,-1.3088094,-1.3824457
1715846876.5935009,0.5949626,-0.8780368,1.3315539,5.6694655,-1.3088094,-1.3824457
1715846876.5957808,0.5949626,-0.8780368,1.3315539,5.6694655,-1.3088094,-1.3824457
1715846876.5979922,0.5949626,-0.8780368,1.3315539,5.6694655,-1.3088094,-1.3824457
1715846876.6001928,0.5949626,-0.8780368,1.3315539,5.6694655,-1.3088094,-1.3824457
1715846876.6024046,0.5949626,-0.8780368,1.3315539,5.6694655,-1.3088094,-1.3824457
1715846876.6047063,0.5949626,-0.8780368,1.3315539,5.6694655,-1.3088094,-1.3824457
1715846876.6069767,0.5949626,-0.8780368,1.3315539,5.6694655,-1.3088094,-1.3824457
1715846876.6092741,0.5949626,-0.8780368,1.3315539,5.6694655,-1.3088094,-1.3824457
1715846876.6118312,0.78481835,-1.4720227,0.74306226,3.2907321,0.14740583,-2.0088208
1715846876.6141312,0.78481835,-1.4720227,0.74306226,3.2907321,0.14740583,-2.0088208
1715846876.6164505,0.78481835,-1.4720227,0.74306226,3.2907321,0.14740583,-2.0088208
1715846876.6187172,0.78481835,-1.4720227,0.74306226,3.2907321,0.14740583,-2.0088208
1715846876.6210043,0.78481835,-1.4720227,0.74306226,3.087267,0.78656393,-2.0216038
1715846876.623237,0.78481835,-1.4720227,0.74306226,3.087267,0.78656393,-2.0216038
1715846876.6255796,0.42458084,-1.5956426,1.0288225,3.087267,0.78656393,-2.0216038
1715846876.6284938,0.2502921,-1.6737214,1.0932881,3.2470565,0.6704502,-1.9257301
1715846876.6307507,0.2502921,-1.6737214,1.0932881,3.2470565,0.6704502,-1.9257301
1715846876.6330314,0.2502921,-1.6737214,1.0932881,3.2470565,0.6704502,-1.9257301
1715846876.635288,0.2502921,-1.6737214,1.0932881,3.2470565,0.6704502,-1.9257301
1715846876.6375515,0.2502921,-1.6737214,1.0932881,3.2470565,0.6704502,-1.9257301
1715846876.6398323,0.2502921,-1.6737214,1.0932881,3.42389,0.44141856,-1.8383785
1715846876.642105,0.2502921,-1.6737214,1.0932881,3.42389,0.44141856,-1.8383785
1715846876.6445951,0.2502921,-1.6737214,1.0932881,3.42389,0.44141856,-1.8383785
1715846876.6468894,0.06922713,-1.7159048,1.0239999,3.42389,0.44141856,-1.8383785
1715846876.6491818,0.06922713,-1.7159048,1.0239999,3.42389,0.44141856,-1.8383785
1715846876.6517048,-0.1231315,-1.8182194,0.58617187,3.8989975,-0.6259755,-1.3771194
1715846876.653996,-0.1231315,-1.8182194,0.58617187,3.8989975,-0.6259755,-1.3771194
1715846876.656257,-0.1231315,-1.8182194,0.58617187,3.8989975,-0.6259755,-1.3771194
1715846876.6585193,-0.1231315,-1.8182194,0.58617187,3.8989975,-0.6259755,-1.3771194
1715846876.661081,-0.29253653,-1.795449,-0.04688398,3.7796881,-1.3705947,-0.8380961
1715846876.6633556,-0.29253653,-1.795449,-0.04688398,3.7796881,-1.3705947,-0.8380961
1715846876.6656249,-0.29253653,-1.795449,-0.04688398,3.7796881,-1.3705947,-0.8380961
1715846876.6678863,-0.29253653,-1.795449,-0.04688398,3.7796881,-1.3705947,-0.8380961
1715846876.670152,-0.29253653,-1.795449,-0.04688398,3.7796881,-1.3705947,-0.8380961
1715846876.6724477,-0.29253653,-1.795449,-0.04688398,3.7796881,-1.3705947,-0.8380961
1715846876.6747315,-0.29253653,-1.795449,-0.04688398,3.7796881,-1.3705947,-0.8380961
1715846876.6770246,-0.29253653,-1.795449,-0.04688398,3.7796881,-1.3705947,-0.8380961
1715846876.6792955,-0.29253653,-1.795449,-0.04688398,3.7796881,-1.3705947,-0.8380961
1715846876.6815717,-0.29253653,-1.795449,-0.04688398,3.7796881,-1.3705947,-0.8380961
1715846876.683835,-0.29253653,-1.795449,-0.04688398,3.7796881,-1.3705947,-0.8380961
1715846876.6861565,-0.29253653,-1.795449,-0.04688398,3.7796881,-1.3705947,-0.8380961
1715846876.6884394,-0.29253653,-1.795449,-0.04688398,3.7796881,-1.3705947,-0.8380961
1715846876.6906538,-0.29253653,-1.795449,-0.04688398,3.7796881,-1.3705947,-0.8380961
1715846876.6929176,-0.29253653,-1.795449,-0.04688398,3.7796881,-1.3705947,-0.8380961
1715846876.695271,-0.29253653,-1.795449,-0.04688398,3.7796881,-1.3705947,-0.8380961
1715846876.6975985,-0.31842038,-1.7314107,-0.32782158,3.4100418,-1.7093484,-0.42690435
1715846876.6999183,0.016971024,-1.3197719,-0.39369115,1.1942936,-2.1620855,0.6841655
1715846876.7021954,0.016971024,-1.3197719,-0.39369115,1.1942936,-2.1620855,0.6841655
1715846876.7045867,0.016971024,-1.3197719,-0.39369115,1.1942936,-2.1620855,0.6841655
1715846876.7068496,0.016971024,-1.3197719,-0.39369115,1.1942936,-2.1620855,0.6841655
1715846876.709281,0.017947774,-1.2062857,-0.3568799,0.8661924,-1.9128138,0.7960182
1715846876.7117486,0.017947774,-1.2062857,-0.3568799,0.8661924,-1.9128138,0.7960182
1715846876.714028,0.017947774,-1.2062857,-0.3568799,0.8661924,-1.9128138,0.7960182
1715846876.7162342,0.017947774,-1.2062857,-0.3568799,0.8661924,-1.9128138,0.7960182
1715846876.7185078,0.017947774,-1.2062857,-0.3568799,0.8661924,-1.9128138,0.7960182
1715846876.7209415,-0.045052577,-1.097195,-0.42274946,0.50293756,-1.4590116,0.93982875
1715846876.7232277,-0.045052577,-1.097195,-0.42274946,0.50293756,-1.4590116,0.93982875
1715846876.7255094,-0.045052577,-1.097195,-0.42274946,0.50293756,-1.4590116,0.93982875
1715846876.7279453,-0.045052577,-1.097195,-0.42274946,0.50293756,-1.4590116,0.93982875
1715846876.7302623,-0.16024798,-1.0171627,-0.547224,0.0661795,-1.0382324,1.1251847
1715846876.732511,-0.16024798,-1.0171627,-0.547224,0.0661795,-1.0382324,1.1251847
1715846876.7347798,-0.16024798,-1.0171627,-0.547224,0.0661795,-1.0382324,1.1251847
1715846876.7370543,-0.16024798,-1.0171627,-0.547224,0.0661795,-1.0382324,1.1251847
1715846876.7392368,-0.16024798,-1.0171627,-0.547224,0.0661795,-1.0382324,1.1251847
1715846876.741639,-0.16024798,-1.0171627,-0.547224,0.0661795,-1.0382324,1.1251847
1715846876.744032,-0.16024798,-1.0171627,-0.547224,0.0661795,-1.0382324,1.1251847
1715846876.7463577,-0.19785284,-0.9662495,-0.6101633,-0.18735322,-0.87205136,1.2327762
1715846876.748655,-0.19785284,-0.9662495,-0.6101633,-0.18735322,-0.87205136,1.2327762
1715846876.7509348,-0.19785284,-0.9662495,-0.6101633,-0.18735322,-0.87205136,1.2327762
1715846876.7533185,-0.19785284,-0.9662495,-0.6101633,-0.18735322,-0.87205136,1.2327762
1715846876.7561295,-0.19785284,-0.9662495,-0.6101633,-0.18735322,-0.87205136,1.2327762
1715846876.7584383,-0.19785284,-0.9662495,-0.6101633,-0.18735322,-0.87205136,1.2327762
1715846876.7609274,-0.19785284,-0.9662495,-0.6101633,-0.18735322,-0.87205136,1.2327762
1715846876.7633054,-0.19785284,-0.9662495,-0.6101633,-0.18735322,-0.87205136,1.2327762
1715846876.765532,-0.19785284,-0.9662495,-0.6101633,-0.18735322,-0.87205136,1.2327762
1715846876.767736,-0.19785284,-0.9662495,-0.6101633,-0.18735322,-0.87205136,1.2327762
1715846876.7699263,-0.19785284,-0.9662495,-0.6101633,-0.18735322,-0.87205136,1.2327762
1715846876.7721002,-0.19785284,-0.9662495,-0.6101633,-0.18735322,-0.87205136,1.2327762
1715846876.774468,-0.19785284,-0.9662495,-0.6101633,-0.18735322,-0.87205136,1.2327762
1715846876.7767596,-0.19785284,-0.9662495,-0.6101633,-0.18735322,-0.87205136,1.2327762
1715846876.779095,-0.19785284,-0.9662495,-0.6101633,-0.18735322,-0.87205136,1.2327762
1715846876.781387,-0.19785284,-0.9662495,-0.6101633,-0.18735322,-0.87205136,1.2327762
1715846876.783653,-0.19785284,-0.9662495,-0.6101633,-0.18735322,-0.87205136,1.2327762
1715846876.7859216,-0.19785284,-0.9662495,-0.6101633,-0.18735322,-0.87205136,1.2327762
1715846876.7881885,-0.36817357,-0.91100216,-0.7481902,-2.5905876,-0.0006657897,2.148903
1715846876.7905173,-0.35162985,-0.9536739,-0.40333655,-3.2648995,0.07603318,2.4503725
1715846876.7928455,-0.35162985,-0.9536739,-0.40333655,-3.2648995,0.07603318,2.4503725
1715846876.7951987,-0.35162985,-0.9536739,-0.40333655,-3.6846135,-0.107192144,2.7198842
1715846876.797495,-0.35162985,-0.9536739,-0.40333655,-3.6846135,-0.107192144,2.7198842
1715846876.7998323,-0.32037386,-1.0520815,-0.20816977,-4.1863527,-0.7420892,3.2546463
1715846876.8021133,-0.32037386,-1.0520815,-0.20816977,-4.1863527,-0.7420892,3.2546463
1715846876.804414,-0.32037386,-1.0520815,-0.20816977,-4.1863527,-0.7420892,3.2546463
1715846876.8066802,-0.32037386,-1.0520815,-0.20816977,-4.1863527,-0.7420892,3.2546463
1715846876.8089547,-0.32037386,-1.0520815,-0.20816977,-4.1863527,-0.7420892,3.2546463
1715846876.8112957,-0.32037386,-1.0520815,-0.20816977,-4.1863527,-0.7420892,3.2546463
1715846876.8137403,-0.17398351,-1.1054364,-0.027043756,-4.680635,-1.6720643,3.9875476
1715846876.8161116,-0.17398351,-1.1054364,-0.027043756,-4.680635,-1.6720643,3.9875476
1715846876.8184981,0.40986854,-1.1563495,0.53483146,-5.160003,-2.8321362,5.080508
1715846876.8207867,0.40986854,-1.1563495,0.53483146,-5.160003,-2.8321362,5.080508
1715846876.8230653,0.40986854,-1.1563495,0.53483146,-5.160003,-2.8321362,5.080508
1715846876.8254054,0.40986854,-1.1563495,0.53483146,-5.160003,-2.8321362,5.080508
1715846876.8278067,0.40986854,-1.1563495,0.53483146,-5.160003,-2.8321362,5.080508
1715846876.8301058,0.40986854,-1.1563495,0.53483146,-5.160003,-2.8321362,5.080508
1715846876.8325424,0.9712554,-1.0744246,0.987677,-5.243094,-3.4041827,5.677056
1715846876.8348498,0.9712554,-1.0744246,0.987677,-5.243094,-3.4041827,5.677056
1715846876.837153,0.9712554,-1.0744246,0.987677,-5.243094,-3.4041827,5.677056
1715846876.8395267,0.9712554,-1.0744246,0.987677,-5.243094,-3.4041827,5.677056
1715846876.842268,1.8118705,-0.85380125,1.5088339,-5.0524116,-3.8079176,6.230993
1715846876.845003,1.8118705,-0.85380125,1.5088339,-5.0524116,-3.8079176,6.230993
1715846876.8472798,1.8118705,-0.85380125,1.5088339,-5.0524116,-3.8079176,6.230993
1715846876.8496287,1.8118705,-0.85380125,1.5088339,-5.0524116,-3.8079176,6.230993
1715846876.8520486,1.8118705,-0.85380125,1.5088339,-5.0524116,-3.8079176,6.230993
1715846876.8545058,2.6241598,-0.62829417,1.8134578,-5.0524116,-3.8079176,6.230993
1715846876.857012,2.6241598,-0.62829417,1.8134578,-5.0524116,-3.8079176,6.230993
1715846876.8594158,2.6241598,-0.62829417,1.8134578,-5.0524116,-3.8079176,6.230993
1715846876.8625855,2.6241598,-0.62829417,1.8134578,-5.0524116,-3.8079176,6.230993
1715846876.8650157,2.6241598,-0.62829417,1.8134578,-5.0524116,-3.8079176,6.230993
1715846876.867264,2.6241598,-0.62829417,1.8134578,-5.0524116,-3.8079176,6.230993
1715846876.8692873,2.6241598,-0.62829417,1.8134578,-5.0524116,-3.8079176,6.230993
1715846876.871287,2.6241598,-0.62829417,1.8134578,-5.0524116,-3.8079176,6.230993
1715846876.873355,2.6241598,-0.62829417,1.8134578,-5.0524116,-3.8079176,6.230993
1715846876.8753734,2.6241598,-0.62829417,1.8134578,-5.0524116,-3.8079176,6.230993
1715846876.877562,2.6241598,-0.62829417,1.8134578,-5.0524116,-3.8079176,6.230993
1715846876.87965,2.6241598,-0.62829417,1.8134578,-5.0524116,-3.8079176,6.230993
1715846876.8817575,2.6241598,-0.62829417,1.8134578,-5.0524116,-3.8079176,6.230993
1715846876.8838365,2.6241598,-0.62829417,1.8134578,-5.0524116,-3.8079176,6.230993
1715846876.8859372,2.6241598,-0.62829417,1.8134578,-5.0524116,-3.8079176,6.230993
1715846876.8879807,2.6241598,-0.62829417,1.8134578,-5.0524116,-3.8079176,6.230993
1715846876.8900523,2.6241598,-0.62829417,1.8134578,-5.0524116,-3.8079176,6.230993
1715846876.8921244,2.6241598,-0.62829417,1.8134578,-5.0524116,-3.8079176,6.230993
1715846876.894538,2.6241598,-0.62829417,1.8134578,-5.0524116,-3.8079176,6.230993
1715846876.8974993,3.2826724,0.2018209,1.9132693,-3.929624,-1.783917,5.6472282
1715846876.8998294,3.5267377,0.9465925,2.0101507,-4.8010097,0.53835756,3.774495
1715846876.9019892,3.5267377,0.9465925,2.0101507,-4.8010097,0.53835756,3.774495
1715846876.9040282,3.5267377,0.9465925,2.0101507,-4.8010097,0.53835756,3.774495
1715846876.9061127,3.5267377,0.9465925,2.0101507,-4.8010097,0.53835756,3.774495
1715846876.9081802,3.5267377,0.9465925,2.0101507,-4.8010097,0.53835756,3.774495
1715846876.910274,3.5267377,0.9465925,2.0101507,-4.8010097,0.53835756,3.774495
1715846876.912361,3.5267377,0.9465925,2.0101507,-4.8010097,0.53835756,3.774495
1715846876.9143798,3.3319373,1.0518372,2.1476893,-4.8010097,0.53835756,3.774495
1715846876.9164386,3.3319373,1.0518372,2.1476893,-4.8010097,0.53835756,3.774495
1715846876.9185638,3.3319373,1.0518372,2.1476893,-4.8010097,0.53835756,3.774495
1715846876.920665,3.3319373,1.0518372,2.1476893,-4.8010097,0.53835756,3.774495
1715846876.9227357,3.3319373,1.0518372,2.1476893,-4.8010097,0.53835756,3.774495
1715846876.9248238,3.3319373,1.0518372,2.1476893,-4.8010097,0.53835756,3.774495
1715846876.92704,3.3319373,1.0518372,2.1476893,-4.6987443,0.43076593,2.3491724
1715846876.9293814,2.9673042,1.1517099,2.3331497,-4.244942,0.2944122,1.8112143
1715846876.9330657,2.50695,1.2966962,2.4843016,-4.244942,0.2944122,1.8112143
1715846876.9369445,2.50695,1.2966962,2.4843016,-4.244942,0.2944122,1.8112143
1715846876.9406567,2.50695,1.2966962,2.4843016,-4.244942,0.2944122,1.8112143
1715846876.9447682,2.50695,1.2966962,2.4843016,-4.244942,0.2944122,1.8112143
1715846876.9485033,2.50695,1.2966962,2.4843016,-4.244942,0.2944122,1.8112143
1715846876.9521203,2.50695,1.2966962,2.4843016,-4.244942,0.2944122,1.8112143
1715846876.9557555,2.50695,1.2966962,2.4843016,-4.244942,0.2944122,1.8112143
1715846876.9593332,2.50695,1.2966962,2.4843016,-4.244942,0.2944122,1.8112143
1715846876.9631605,2.50695,1.2966962,2.4843016,-4.244942,0.2944122,1.8112143
1715846876.966824,2.50695,1.2966962,2.4843016,-4.244942,0.2944122,1.8112143
1715846876.970449,1.7224979,1.7239021,1.3896705,-1.7287896,0.1047953,0.5989444
1715846876.9741304,1.7224979,1.7239021,1.3896705,-1.7287896,0.1047953,0.5989444
1715846876.9771063,1.7224979,1.7239021,1.3896705,-1.7287896,0.1047953,0.5989444
1715846876.9801376,1.3983392,1.7364777,0.99591833,-1.6989622,0.69388604,0.010918951
1715846876.9825687,1.3983392,1.7364777,0.99591833,-1.6989622,0.69388604,0.010918951
1715846876.9850762,1.3983392,1.7364777,0.99591833,-1.6989622,0.69388604,0.010918951
1715846876.9872305,1.3983392,1.7364777,0.99591833,-1.6989622,0.69388604,0.010918951
1715846876.9893394,1.3983392,1.7364777,0.99591833,-1.6989622,0.69388604,0.010918951
1715846876.9912288,1.3983392,1.7364777,0.99591833,-1.6989622,0.69388604,0.010918951
1715846876.9932497,1.3983392,1.7364777,0.99591833,-1.6989622,0.69388604,0.010918951
1715846876.9952312,1.3983392,1.7364777,0.99591833,-1.7351811,1.0805767,-0.33529168
1715846876.9972103,1.3983392,1.7364777,0.99591833,-1.7351811,1.0805767,-0.33529168
1715846876.999269,0.8931765,1.6467999,0.9111243,-1.7351811,1.0805767,-0.33529168
1715846877.0030181,0.8931765,1.6467999,0.9111243,-1.6915053,1.4331789,-0.64315283
1715846877.0066705,0.8931765,1.6467999,0.9111243,-1.6915053,1.4331789,-0.64315283
1715846877.0105329,0.5358693,1.5740931,0.9552001,-1.4550169,1.757019,-0.9499487
1715846877.0135014,0.5358693,1.5740931,0.9552001,-1.4550169,1.757019,-0.9499487
1715846877.0159934,0.5358693,1.5740931,0.9552001,-1.4550169,1.757019,-0.9499487
1715846877.018459,0.12044544,1.4887495,1.029311,-0.87018716,1.7783242,-1.1225214
1715846877.0208282,0.12044544,1.4887495,1.029311,-0.87018716,1.7783242,-1.1225214
1715846877.023286,0.12044544,1.4887495,1.029311,-0.87018716,1.7783242,-1.1225214
1715846877.02571,0.12044544,1.4887495,1.029311,-0.87018716,1.7783242,-1.1225214
1715846877.02824,0.12044544,1.4887495,1.029311,-0.87018716,1.7783242,-1.1225214
1715846877.0306928,0.12044544,1.4887495,1.029311,-0.87018716,1.7783242,-1.1225214
1715846877.033127,0.12044544,1.4887495,1.029311,-0.87018716,1.7783242,-1.1225214
1715846877.035528,0.12044544,1.4887495,1.029311,-0.87018716,1.7783242,-1.1225214
1715846877.0379372,0.12044544,1.4887495,1.029311,-0.87018716,1.7783242,-1.1225214
1715846877.0403466,0.12044544,1.4887495,1.029311,-0.87018716,1.7783242,-1.1225214
1715846877.0427325,0.12044544,1.4887495,1.029311,-0.87018716,1.7783242,-1.1225214
1715846877.045354,0.12044544,1.4887495,1.029311,-0.87018716,1.7783242,-1.1225214
1715846877.0477629,0.12044544,1.4887495,1.029311,-0.87018716,1.7783242,-1.1225214
1715846877.0502863,-0.2251408,1.3131789,1.004648,1.1207904,1.025183,-0.9424919
1715846877.0527594,-0.2251408,1.3131789,1.004648,1.1207904,1.025183,-0.9424919
1715846877.055227,-0.2251408,1.3131789,1.004648,1.1207904,1.025183,-0.9424919
1715846877.0576837,-0.29937378,1.2244778,0.91747314,1.1207904,1.025183,-0.9424919
1715846877.0602,-0.29937378,1.2244778,0.91747314,1.4190642,0.9900293,-0.86792344
1715846877.0626621,-0.29937378,1.2244778,0.91747314,1.4190642,0.9900293,-0.86792344
1715846877.065102,-0.29937378,1.2244778,0.91747314,1.4190642,0.9900293,-0.86792344
1715846877.067598,-0.23344316,1.0620321,0.8617374,1.4190642,0.9900293,-0.86792344
1715846877.0700138,-0.23344316,1.0620321,0.8617374,1.4190642,0.9900293,-0.86792344
1715846877.072504,-0.23344316,1.0620321,0.8617374,2.2052286,1.1157304,-0.7294392
1715846877.0748653,-0.23344316,1.0620321,0.8617374,2.2052286,1.1157304,-0.7294392
1715846877.077526,-0.12166637,0.9834648,0.92278415,2.7176204,1.1892335,-0.6985465
1715846877.0800157,-0.12166637,0.9834648,0.92278415,2.7176204,1.1892335,-0.6985465
1715846877.0824316,-0.12166637,0.9834648,0.92278415,2.7176204,1.1892335,-0.6985465
1715846877.0848641,-0.12166637,0.9834648,0.92278415,2.7176204,1.1892335,-0.6985465
1715846877.0872288,-0.12166637,0.9834648,0.92278415,2.7176204,1.1892335,-0.6985465
1715846877.0896626,-0.12166637,0.9834648,0.92278415,2.7176204,1.1892335,-0.6985465
1715846877.0921433,0.075576,0.9048975,1.0462819,3.26197,1.162602,-0.7347655
1715846877.0947928,0.075576,0.9048975,1.0462819,3.26197,1.162602,-0.7347655
1715846877.0975132,0.29229233,0.87290895,1.1020178,3.847865,1.0731199,-0.87324977
1715846877.0998726,0.29229233,0.87290895,1.1020178,3.847865,1.0731199,-0.87324977
1715846877.102247,0.29229233,0.87290895,1.1020178,3.847865,1.0731199,-0.87324977
1715846877.1046374,0.29229233,0.87290895,1.1020178,3.847865,1.0731199,-0.87324977
1715846877.107068,0.29229233,0.87290895,1.1020178,3.847865,1.0731199,-0.87324977
1715846877.1096106,0.29229233,0.87290895,1.1020178,4.0971365,1.0358356,-0.9744498
1715846877.1121125,0.29229233,0.87290895,1.1020178,4.0971365,1.0358356,-0.9744498
1715846877.114573,0.29229233,0.87290895,1.1020178,4.0971365,1.0358356,-0.9744498
1715846877.1170292,0.29229233,0.87290895,1.1020178,4.0971365,1.0358356,-0.9744498
1715846877.1193888,0.29229233,0.87290895,1.1020178,4.0971365,1.0358356,-0.9744498
1715846877.121809,0.29229233,0.87290895,1.1020178,4.0971365,1.0358356,-0.9744498
1715846877.1242158,0.29229233,0.87290895,1.1020178,4.0971365,1.0358356,-0.9744498
1715846877.1266565,0.29229233,0.87290895,1.1020178,4.0971365,1.0358356,-0.9744498
1715846877.129148,0.29229233,0.87290895,1.1020178,4.0971365,1.0358356,-0.9744498
1715846877.1315556,0.29229233,0.87290895,1.1020178,4.0971365,1.0358356,-0.9744498
1715846877.1339736,0.29229233,0.87290895,1.1020178,4.0971365,1.0358356,-0.9744498
1715846877.1363988,0.29229233,0.87290895,1.1020178,4.0971365,1.0358356,-0.9744498
1715846877.1389046,0.5295814,0.8447663,0.9489122,4.4209766,1.0827072,-1.1906983
1715846877.1413908,0.5295814,0.8447663,0.9489122,4.4209766,1.0827072,-1.1906983
1715846877.1439245,0.5295814,0.8447663,0.9489122,4.4252377,1.263802,-1.3792499
1715846877.1464524,0.9606333,0.90733933,1.3126905,4.358126,1.5855116,-1.6711322
1715846877.1490734,1.0875497,0.94903433,1.6159102,4.3868885,1.7154738,-1.8532922
1715846877.1527536,1.0875497,0.94903433,1.6159102,4.3868885,1.7154738,-1.8532922
1715846877.1563997,1.0875497,0.94903433,1.6159102,4.3868885,1.7154738,-1.8532922
1715846877.1601152,1.1988381,1.0062352,1.9495924,4.531764,1.7314527,-1.9949722
1715846877.163813,1.1988381,1.0062352,1.9495924,4.531764,1.7314527,-1.9949722
1715846877.1666036,1.537587,1.0852909,2.535642,5.0707874,1.4246567,-2.224004
1715846877.1695056,1.537587,1.0852909,2.535642,5.0707874,1.4246567,-2.224004
1715846877.171913,1.537587,1.0852909,2.535642,5.0707874,1.4246567,-2.224004
1715846877.1742887,1.537587,1.0852909,2.535642,5.0707874,1.4246567,-2.224004
1715846877.17647,1.537587,1.0852909,2.535642,5.0707874,1.4246567,-2.224004
1715846877.1786866,1.537587,1.0852909,2.535642,5.0707874,1.4246567,-2.224004
1715846877.1808748,1.537587,1.0852909,2.535642,5.0707874,1.4246567,-2.224004
1715846877.1829803,1.537587,1.0852909,2.535642,5.0707874,1.4246567,-2.224004
1715846877.18522,1.537587,1.0852909,2.535642,5.5267205,1.1785809,-2.4541008
1715846877.1872969,1.537587,1.0852909,2.535642,5.5267205,1.1785809,-2.4541008
1715846877.1894085,1.537587,1.0852909,2.535642,5.5267205,1.1785809,-2.4541008
1715846877.191572,1.537587,1.0852909,2.535642,5.5267205,1.1785809,-2.4541008
1715846877.193789,1.8002106,1.0770496,2.7085876,5.5267205,1.1785809,-2.4541008
1715846877.1962068,1.9945227,1.0285784,2.7584631,5.815407,1.0273135,-2.6639578
1715846877.1984043,1.9945227,1.0285784,2.7584631,5.815407,1.0273135,-2.6639578
1715846877.2005935,1.9945227,1.0285784,2.7584631,5.815407,1.0273135,-2.6639578
1715846877.2027698,1.9945227,1.0285784,2.7584631,5.815407,1.0273135,-2.6639578
1715846877.2049618,1.9945227,1.0285784,2.7584631,5.815407,1.0273135,-2.6639578
1715846877.2071304,1.9945227,1.0285784,2.7584631,5.815407,1.0273135,-2.6639578
1715846877.2092712,1.9945227,1.0285784,2.7584631,5.815407,1.0273135,-2.6639578
1715846877.2114668,1.9945227,1.0285784,2.7584631,5.815407,1.0273135,-2.6639578
1715846877.2136261,1.9945227,1.0285784,2.7584631,5.815407,1.0273135,-2.6639578
1715846877.2157469,1.9945227,1.0285784,2.7584631,5.815407,1.0273135,-2.6639578
1715846877.2179165,1.9945227,1.0285784,2.7584631,5.815407,1.0273135,-2.6639578
1715846877.220084,1.9945227,1.0285784,2.7584631,5.815407,1.0273135,-2.6639578
1715846877.222274,1.9945227,1.0285784,2.7584631,5.815407,1.0273135,-2.6639578
1715846877.224463,1.9945227,1.0285784,2.7584631,5.815407,1.0273135,-2.6639578
1715846877.2266376,1.9945227,1.0285784,2.7584631,5.815407,1.0273135,-2.6639578
1715846877.2288191,2.3942575,0.7046638,2.6799567,6.305428,0.6438186,-3.2008505
1715846877.231119,2.2795503,0.28331846,2.0072205,6.247904,0.14634058,-3.7505267
1715846877.2333186,2.2795503,0.28331846,2.0072205,6.247904,0.14634058,-3.7505267
1715846877.235427,2.2795503,0.28331846,2.0072205,6.247904,0.14634058,-3.7505267
1715846877.2376044,2.2795503,0.28331846,2.0072205,6.247904,0.14634058,-3.7505267
1715846877.2397847,2.2795503,0.28331846,2.0072205,6.247904,0.14634058,-3.7505267
1715846877.241963,2.2795503,0.28331846,2.0072205,6.247904,0.14634058,-3.7505267
1715846877.2442687,2.2795503,0.28331846,2.0072205,6.247904,0.14634058,-3.7505267
1715846877.2464669,2.2795503,0.28331846,2.0072205,6.247904,0.14634058,-3.7505267
1715846877.2486527,2.2795503,0.28331846,2.0072205,6.247904,0.14634058,-3.7505267
1715846877.2508285,1.8416615,0.010316918,1.3020072,5.771731,0.139949,-3.8964677
1715846877.2530541,1.8416615,0.010316918,1.3020072,5.0846357,0.31678274,-3.9209688
1715846877.2552226,1.8416615,0.010316918,1.3020072,5.0846357,0.31678274,-3.9209688
1715846877.2576077,1.8416615,0.010316918,1.3020072,5.0846357,0.31678274,-3.9209688
1715846877.259799,1.8416615,0.010316918,1.3020072,5.0846357,0.31678274,-3.9209688
1715846877.262123,1.6054101,-0.14584093,1.1261923,4.358126,0.5617933,-3.8709013
1715846877.2643216,1.6054101,-0.14584093,1.1261923,4.358126,0.5617933,-3.8709013
1715846877.2665305,1.6054101,-0.14584093,1.1261923,4.358126,0.5617933,-3.8709013
1715846877.2686582,1.6054101,-0.14584093,1.1261923,4.358126,0.5617933,-3.8709013
1715846877.2710187,1.3515773,-0.30730984,1.0099591,3.717903,0.86539346,-3.7366781
1715846877.27317,1.3515773,-0.30730984,1.0099591,3.717903,0.86539346,-3.7366781
1715846877.2752893,1.3515773,-0.30730984,1.0099591,3.717903,0.86539346,-3.7366781
1715846877.277637,1.0655118,-0.47897357,0.95471174,3.2310774,1.1050777,-3.4756885
1715846877.2798429,1.0655118,-0.47897357,0.95471174,3.2310774,1.1050777,-3.4756885
1715846877.282018,1.0655118,-0.47897357,0.95471174,3.2310774,1.1050777,-3.4756885
1715846877.284187,1.0655118,-0.47897357,0.95471174,3.2310774,1.1050777,-3.4756885
1715846877.2863703,1.0655118,-0.47897357,0.95471174,3.2310774,1.1050777,-3.4756885
1715846877.2885528,1.0655118,-0.47897357,0.95471174,3.2310774,1.1050777,-3.4756885
1715846877.2907314,1.0655118,-0.47897357,0.95471174,3.2310774,1.1050777,-3.4756885
1715846877.292861,1.0655118,-0.47897357,0.95471174,3.2310774,1.1050777,-3.4756885
1715846877.2951086,1.0655118,-0.47897357,0.95471174,3.2310774,1.1050777,-3.4756885
1715846877.2973022,1.0655118,-0.47897357,0.95471174,3.2310774,1.1050777,-3.4756885
1715846877.2994053,1.0655118,-0.47897357,0.95471174,3.2310774,1.1050777,-3.4756885
1715846877.3015857,1.0655118,-0.47897357,0.95471174,3.2310774,1.1050777,-3.4756885
1715846877.3037536,1.0655118,-0.47897357,0.95471174,3.2310774,1.1050777,-3.4756885
1715846877.3059223,1.0655118,-0.47897357,0.95471174,3.2310774,1.1050777,-3.4756885
1715846877.3080878,1.0655118,-0.47897357,0.95471174,3.2310774,1.1050777,-3.4756885
1715846877.310296,1.0655118,-0.47897357,0.95471174,3.2310774,1.1050777,-3.4756885
1715846877.3125732,1.0655118,-0.47897357,0.95471174,3.2310774,1.1050777,-3.4756885
1715846877.3147473,1.0655118,-0.47897357,0.95471174,3.2310774,1.1050777,-3.4756885
1715846877.3169317,1.0655118,-0.47897357,0.95471174,3.2310774,1.1050777,-3.4756885
1715846877.3190994,1.0655118,-0.47897357,0.95471174,3.2310774,1.1050777,-3.4756885
1715846877.321291,1.0655118,-0.47897357,0.95471174,3.2310774,1.1050777,-3.4756885
1715846877.3235316,0.16824512,-0.9643571,0.3066994,2.2371867,1.0720546,-1.9672754
1715846877.3258297,0.16824512,-0.9643571,0.3066994,2.2371867,1.0720546,-1.9672754
1715846877.3287609,-0.027959459,-0.99439216,0.1764254,2.0358517,0.9996167,-1.5699321
1715846877.3312297,-0.027959459,-0.99439216,0.1764254,2.0358517,0.9996167,-1.5699321
1715846877.3338273,-0.027959459,-0.99439216,0.1764254,2.0358517,0.9996167,-1.5699321
1715846877.3364465,-0.027959459,-0.99439216,0.1764254,1.7748622,0.8494145,-1.0394309
1715846877.339069,-0.24278332,-1.00068,-0.04883748,1.7748622,0.8494145,-1.0394309
1715846877.3427784,-0.24278332,-1.00068,-0.04883748,1.7748622,0.8494145,-1.0394309
1715846877.3468685,-0.24278332,-1.00068,-0.04883748,1.7748622,0.8494145,-1.0394309
1715846877.3507197,-0.36383924,-0.9851741,-0.21110001,1.5511569,0.77804184,-0.6974813
1715846877.3544266,-0.36383924,-0.9851741,-0.21110001,1.5511569,0.77804184,-0.6974813
1715846877.3582022,-0.36383924,-0.9851741,-0.21110001,1.5511569,0.77804184,-0.6974813
1715846877.3628485,-0.46780202,-0.9706449,-0.39607197,1.147422,0.7087997,-0.18722007
1715846877.3663795,-0.46780202,-0.9706449,-0.39607197,1.147422,0.7087997,-0.18722007
1715846877.3696284,-0.46780202,-0.9706449,-0.39607197,1.147422,0.7087997,-0.18722007
1715846877.3728163,-0.4741509,-0.97693276,-0.5137703,0.66911864,0.6502102,0.31558433
1715846877.375222,-0.4741509,-0.97693276,-0.5137703,0.66911864,0.6502102,0.31558433
1715846877.3774471,-0.4741509,-0.97693276,-0.5137703,0.66911864,0.6502102,0.31558433
1715846877.3796318,-0.4741509,-0.97693276,-0.5137703,0.66911864,0.6502102,0.31558433
1715846877.381672,-0.4741509,-0.97693276,-0.5137703,0.66911864,0.6502102,0.31558433
1715846877.383709,-0.4741509,-0.97693276,-0.5137703,0.66911864,0.6502102,0.31558433
1715846877.385712,-0.4741509,-0.97693276,-0.5137703,0.66911864,0.6502102,0.31558433
1715846877.3876758,-0.4741509,-0.97693276,-0.5137703,0.66911864,0.6502102,0.31558433
1715846877.3896892,-0.4741509,-0.97693276,-0.5137703,0.66911864,0.6502102,0.31558433
1715846877.3919137,-0.4741509,-0.97693276,-0.5137703,0.66911864,0.6502102,0.31558433
1715846877.3941276,-0.4741509,-0.97693276,-0.5137703,0.66911864,0.6502102,0.31558433
1715846877.396158,-0.4741509,-0.97693276,-0.5137703,0.66911864,0.6502102,0.31558433
1715846877.3981109,-0.4741509,-0.97693276,-0.5137703,0.66911864,0.6502102,0.31558433
1715846877.4000673,-0.4741509,-0.97693276,-0.5137703,0.66911864,0.6502102,0.31558433
1715846877.402105,-0.4741509,-0.97693276,-0.5137703,0.66911864,0.6502102,0.31558433
1715846877.404039,-0.4741509,-0.97693276,-0.5137703,0.66911864,0.6502102,0.31558433
1715846877.4060514,-0.4741509,-0.97693276,-0.5137703,0.66911864,0.6502102,0.31558433
1715846877.4080648,-0.4741509,-0.97693276,-0.5137703,0.66911864,0.6502102,0.31558433
1715846877.4100354,-0.19541097,-1.0239999,-0.5660874,-0.77857447,0.47976807,1.4181321
1715846877.4121647,-0.19541097,-1.0239999,-0.5660874,-0.77857447,0.47976807,1.4181321
1715846877.4143,-0.19541097,-1.0239999,-0.5660874,-1.1194588,0.34980592,1.5907048
1715846877.4163609,-0.19541097,-1.0239999,-0.5660874,-1.1194588,0.34980592,1.5907048
1715846877.4183738,-0.19541097,-1.0239999,-0.5660874,-1.1194588,0.34980592,1.5907048
1715846877.420368,-0.13930891,-1.0244272,-0.49393007,-1.1194588,0.34980592,1.5907048
1715846877.4224067,-0.13930891,-1.0244272,-0.49393007,-1.7554212,0.01744369,1.8751302
1715846877.4244316,-0.13930891,-1.0244272,-0.49393007,-1.7554212,0.01744369,1.8751302
1715846877.4263668,-0.13930891,-1.0244272,-0.49393007,-1.7554212,0.01744369,1.8751302
1715846877.4286692,-0.13930891,-1.0244272,-0.49393007,-1.7554212,0.01744369,1.8751302
1715846877.4312348,-0.093890056,-1.0147818,-0.42030758,-2.0185413,-0.15299848,2.011484
1715846877.4337494,-0.093890056,-1.0147818,-0.42030758,-2.0185413,-0.15299848,2.011484
1715846877.436208,-0.093890056,-1.0147818,-0.42030758,-2.0185413,-0.15299848,2.011484
1715846877.4387271,-0.093890056,-1.0147818,-0.42030758,-2.0185413,-0.15299848,2.011484
1715846877.4410765,-0.093890056,-1.0147818,-0.42030758,-2.0185413,-0.15299848,2.011484
1715846877.4434972,-0.093890056,-1.0147818,-0.42030758,-2.0185413,-0.15299848,2.011484
1715846877.4458063,-0.044075824,-0.99341536,-0.37378985,-2.3381202,-0.26698166,2.1829913
1715846877.4478178,-0.044075824,-0.99341536,-0.37378985,-2.3381202,-0.26698166,2.1829913
1715846877.4497023,-0.037788,-0.9594733,-0.3360629,-2.6310678,-0.25313324,2.367282
1715846877.4515502,-0.037788,-0.9594733,-0.3360629,-2.6310678,-0.25313324,2.367282
1715846877.4533267,-0.037788,-0.9594733,-0.3360629,-2.6310678,-0.25313324,2.367282
1715846877.4551194,-0.037788,-0.9594733,-0.3360629,-2.6310678,-0.25313324,2.367282
1715846877.4569073,-0.037788,-0.9594733,-0.3360629,-2.6310678,-0.25313324,2.367282
1715846877.4586682,-0.037788,-0.9594733,-0.3360629,-2.6310678,-0.25313324,2.367282
1715846877.4606116,-0.00018314055,-0.934261,-0.27983877,-2.8952532,-0.1902827,2.5611598
1715846877.4628358,-0.00018314055,-0.934261,-0.27983877,-2.8952532,-0.1902827,2.5611598
1715846877.4647117,-0.00018314055,-0.934261,-0.27983877,-2.8952532,-0.1902827,2.5611598
1715846877.4664652,-0.00018314055,-0.934261,-0.27983877,-2.8952532,-0.1902827,2.5611598
1715846877.4682178,-0.00018314055,-0.934261,-0.27983877,-2.8952532,-0.1902827,2.5611598
1715846877.4699821,-0.00018314055,-0.934261,-0.27983877,-2.8952532,-0.1902827,2.5611598
1715846877.4717755,-0.00018314055,-0.934261,-0.27983877,-2.8952532,-0.1902827,2.5611598
1715846877.4735012,-0.00018314055,-0.934261,-0.27983877,-2.8952532,-0.1902827,2.5611598
1715846877.475424,-0.00018314055,-0.934261,-0.27983877,-2.8952532,-0.1902827,2.5611598
1715846877.4772732,-0.00018314055,-0.934261,-0.27983877,-2.8952532,-0.1902827,2.5611598
1715846877.4790602,-0.00018314055,-0.934261,-0.27983877,-2.8952532,-0.1902827,2.5611598
1715846877.4808276,-0.00018314055,-0.934261,-0.27983877,-2.8952532,-0.1902827,2.5611598
1715846877.4825835,-0.00018314055,-0.934261,-0.27983877,-2.8952532,-0.1902827,2.5611598
1715846877.4844186,-0.00018314055,-0.934261,-0.27983877,-2.8952532,-0.1902827,2.5611598
1715846877.4870415,-0.00018314055,-0.934261,-0.27983877,-2.8952532,-0.1902827,2.5611598
1715846877.489468,-0.00018314055,-0.934261,-0.27983877,-2.8952532,-0.1902827,2.5611598
1715846877.4916823,-0.00018314055,-0.934261,-0.27983877,-2.8952532,-0.1902827,2.5611598
1715846877.4935596,-0.00018314055,-0.934261,-0.27983877,-2.8952532,-0.1902827,2.5611598
1715846877.495289,-0.00018314055,-0.934261,-0.27983877,-2.8952532,-0.1902827,2.5611598
1715846877.4970465,-0.00018314055,-0.934261,-0.27983877,-2.8952532,-0.1902827,2.5611598
1715846877.4988117,0.055979963,-0.9070952,-0.20237032,-3.060369,-0.18815216,2.6879263
1715846877.5011437,0.114523895,-0.7083266,-0.24791127,-3.65159,-0.24780692,3.0895305
1715846877.5029912,0.114523895,-0.7083266,-0.24791127,-3.65159,-0.24780692,3.0895305
1715846877.5047605,0.114523895,-0.7083266,-0.24791127,-3.65159,-0.24780692,3.0895305
1715846877.506515,0.114523895,-0.7083266,-0.24791127,-3.65159,-0.24780692,3.0895305
1715846877.5082722,0.114523895,-0.7083266,-0.24791127,-3.65159,-0.24780692,3.0895305
1715846877.5100296,0.114523895,-0.7083266,-0.24791127,-3.65159,-0.24780692,3.0895305
1715846877.5118115,0.14871013,-0.66712,-0.21256512,-3.9061882,-0.16578163,3.2258842
1715846877.5136409,0.14871013,-0.66712,-0.21256512,-3.9061882,-0.16578163,3.2258842
1715846877.5152967,0.14871013,-0.66712,-0.21256512,-3.9061882,-0.16578163,3.2258842
1715846877.5170794,0.27318466,-0.62395984,-0.076919034,-4.217245,-0.08588687,3.402718
1715846877.5188537,0.27318466,-0.62395984,-0.076919034,-4.217245,-0.08588687,3.402718
1715846877.5206285,0.27318466,-0.62395984,-0.076919034,-4.217245,-0.08588687,3.402718
1715846877.5224056,0.27318466,-0.62395984,-0.076919034,-4.217245,-0.08588687,3.402718
1715846877.5240922,0.27318466,-0.62395984,-0.076919034,-4.217245,-0.08588687,3.402718
1715846877.5257924,0.27318466,-0.62395984,-0.076919034,-4.217245,-0.08588687,3.402718
1715846877.527668,0.27318466,-0.62395984,-0.076919034,-4.217245,-0.08588687,3.402718
1715846877.5294478,0.27318466,-0.62395984,-0.076919034,-4.217245,-0.08588687,3.402718
1715846877.5312188,0.27318466,-0.62395984,-0.076919034,-4.217245,-0.08588687,3.402718
1715846877.5330067,0.27318466,-0.62395984,-0.076919034,-4.217245,-0.08588687,3.402718
1715846877.5348835,0.27318466,-0.62395984,-0.076919034,-4.217245,-0.08588687,3.402718
1715846877.5373468,0.27318466,-0.62395984,-0.076919034,-4.217245,-0.08588687,3.402718
1715846877.5395617,0.27318466,-0.62395984,-0.076919034,-4.217245,-0.08588687,3.402718
1715846877.5415192,0.27318466,-0.62395984,-0.076919034,-4.217245,-0.08588687,3.402718
1715846877.5438983,0.27318466,-0.62395984,-0.076919034,-4.217245,-0.08588687,3.402718
1715846877.5459094,0.78573406,-0.29516155,0.3245861,-4.6721125,-0.5588639,3.5454633
1715846877.548229,0.78573406,-0.29516155,0.3245861,-4.6721125,-0.5588639,3.5454633
1715846877.5501175,0.9575809,-0.12062858,0.4093802,-4.8649254,-0.8411587,3.4932654
1715846877.5518782,0.9575809,-0.12062858,0.4093802,-4.8649254,-0.8411587,3.4932654
1715846877.5536346,0.9575809,-0.12062858,0.4093802,-4.8649254,-0.8411587,3.4932654
1715846877.5552888,0.9575809,-0.12062858,0.4093802,-4.8649254,-0.8411587,3.4932654
1715846877.5570493,0.9575809,-0.12062858,0.4093802,-4.8649254,-0.8411587,3.4932654
1715846877.5588439,0.9575809,-0.12062858,0.4093802,-4.8649254,-0.8411587,3.4932654
1715846877.5607197,0.9575809,-0.12062858,0.4093802,-4.8649254,-0.8411587,3.4932654
1715846877.562619,0.9575809,-0.12062858,0.4093802,-4.8649254,-0.8411587,3.4932654
1715846877.5649533,0.9575809,-0.12062858,0.4093802,-4.8649254,-0.8411587,3.4932654
1715846877.5672991,0.9575809,-0.12062858,0.4093802,-4.8649254,-0.8411587,3.4932654
1715846877.5696054,0.9575809,-0.12062858,0.4093802,-4.8649254,-0.8411587,3.4932654
1715846877.5718288,0.9575809,-0.12062858,0.4093802,-4.8649254,-0.8411587,3.4932654
1715846877.5737772,0.9575809,-0.12062858,0.4093802,-4.8649254,-0.8411587,3.4932654
1715846877.575935,0.9575809,-0.12062858,0.4093802,-4.8649254,-0.8411587,3.4932654
1715846877.5778704,0.9575809,-0.12062858,0.4093802,-4.8649254,-0.8411587,3.4932654
1715846877.5796437,0.9575809,-0.12062858,0.4093802,-4.8649254,-0.8411587,3.4932654
1715846877.581402,0.9575809,-0.12062858,0.4093802,-4.8649254,-0.8411587,3.4932654
1715846877.5831637,0.9575809,-0.12062858,0.4093802,-4.8649254,-0.8411587,3.4932654
1715846877.5849264,0.9575809,-0.12062858,0.4093802,-4.8649254,-0.8411587,3.4932654
1715846877.586633,1.4652466,0.36670843,0.88060087,-5.749094,-1.121323,3.2716906
1715846877.5883875,2.1452475,0.7997138,1.8057047,-6.225267,-1.1554115,2.747581
1715846877.5901628,2.1452475,0.7997138,1.8057047,-6.225267,-1.1554115,2.747581
1715846877.5919318,2.1452475,0.7997138,1.8057047,-6.225267,-1.1554115,2.747581
1715846877.5938396,2.1452475,0.7997138,1.8057047,-6.225267,-1.1554115,2.747581
1715846877.5956392,2.1452475,0.7997138,1.8057047,-6.225267,-1.1554115,2.747581
1715846877.5974057,2.2112389,1.0188719,2.4082372,-6.1826563,-1.2598072,2.2639513
1715846877.5991907,2.2112389,1.0188719,2.4082372,-6.1826563,-1.2598072,2.2639513
1715846877.60097,2.2112389,1.0188719,2.4082372,-6.1826563,-1.2598072,2.2639513
1715846877.6027398,2.2112389,1.0188719,2.4082372,-6.1826563,-1.2598072,2.2639513
1715846877.6045039,2.2112389,1.0188719,2.4082372,-6.1826563,-1.2598072,2.2639513
1715846877.6062536,2.2112389,1.0188719,2.4082372,-6.1826563,-1.2598072,2.2639513
1715846877.6079383,2.2112389,1.0188719,2.4082372,-6.1826563,-1.2598072,2.2639513
1715846877.609741,2.2112389,1.0188719,2.4082372,-6.1826563,-1.2598072,2.2639513
1715846877.6115806,2.2112389,1.0188719,2.4082372,-6.1826563,-1.2598072,2.2639513
1715846877.6133428,2.2112389,1.0188719,2.4082372,-6.1826563,-1.2598072,2.2639513
1715846877.6151047,2.0779738,1.1396226,2.922618,-5.77253,-1.0030788,1.9720691
1715846877.6168737,2.0779738,1.1396226,2.922618,-5.77253,-1.0030788,1.9720691
1715846877.6186478,2.0779738,1.1396226,2.922618,-5.77253,-1.0030788,1.9720691
1715846877.6204383,2.0779738,1.1396226,2.922618,-5.77253,-1.0030788,1.9720691
1715846877.6223085,1.7923967,1.2923619,3.300437,-4.997018,-0.51305753,1.9763302
1715846877.6240263,1.7923967,1.2923619,3.300437,-4.997018,-0.51305753,1.9763302
1715846877.6277926,1.7923967,1.2923619,3.300437,-4.997018,-0.51305753,1.9763302
1715846877.6322987,1.8070478,1.4194003,3.6045723,-4.2747693,-0.40972698,2.1680777
1715846877.6343899,1.8070478,1.4194003,3.6045723,-4.2747693,-0.40972698,2.1680777
1715846877.6361084,1.8070478,1.4194003,3.6045723,-4.2747693,-0.40972698,2.1680777
1715846877.6378646,1.8070478,1.4194003,3.6045723,-4.2747693,-0.40972698,2.1680777
1715846877.639612,2.0940292,1.5803809,3.7353957,-3.141329,-0.65899867,2.258625
1715846877.6413655,2.0940292,1.5803809,3.7353957,-3.141329,-0.65899867,2.258625
1715846877.6431243,2.0940292,1.5803809,3.7353957,-3.141329,-0.65899867,2.258625
1715846877.6449597,2.0940292,1.5803809,3.7353957,-3.141329,-0.65899867,2.258625
1715846877.6467388,2.0940292,1.5803809,3.7353957,-3.141329,-0.65899867,2.258625
1715846877.6485298,2.0940292,1.5803809,3.7353957,-3.141329,-0.65899867,2.258625
1715846877.6503048,2.0940292,1.5803809,3.7353957,-3.141329,-0.65899867,2.258625
1715846877.6520848,2.0940292,1.5803809,3.7353957,-3.141329,-0.65899867,2.258625
1715846877.6538546,2.0940292,1.5803809,3.7353957,-3.141329,-0.65899867,2.258625
1715846877.655677,2.0940292,1.5803809,3.7353957,-3.141329,-0.65899867,2.258625
1715846877.657497,2.0940292,1.5803809,3.7353957,-3.141329,-0.65899867,2.258625
1715846877.6592526,2.0940292,1.5803809,3.7353957,-3.141329,-0.65899867,2.258625
1715846877.6611824,2.0940292,1.5803809,3.7353957,-3.141329,-0.65899867,2.258625
1715846877.663001,2.0940292,1.5803809,3.7353957,-3.141329,-0.65899867,2.258625
1715846877.6648488,2.0940292,1.5803809,3.7353957,-3.141329,-0.65899867,2.258625
1715846877.6667266,2.0940292,1.5803809,3.7353957,-3.141329,-0.65899867,2.258625
1715846877.6686409,2.0940292,1.5803809,3.7353957,-3.141329,-0.65899867,2.258625
1715846877.6707234,2.0940292,1.5803809,3.7353957,-3.141329,-0.65899867,2.258625
1715846877.6733458,2.0940292,1.5803809,3.7353957,-3.141329,-0.65899867,2.258625
1715846877.675372,2.0940292,1.5803809,3.7353957,-3.141329,-0.65899867,2.258625
1715846877.678144,2.0940292,1.5803809,3.7353957,-3.141329,-0.65899867,2.258625
1715846877.68051,2.2595272,1.6186572,3.1318865,-1.0448904,-0.826245,1.6322501
1715846877.683188,2.0061827,1.5076131,2.3210623,-0.51332384,-0.44807646,1.337172
1715846877.6851969,2.0061827,1.5076131,2.3210623,-0.51332384,-0.44807646,1.337172
1715846877.6872814,1.7308614,1.4116474,1.8561295,0.2121206,0.8089345,0.5552686
1715846877.6892064,1.7308614,1.4116474,1.8561295,0.2121206,0.8089345,0.5552686
1715846877.692772,1.7308614,1.4116474,1.8561295,0.2121206,0.8089345,0.5552686
1715846877.6966465,1.7308614,1.4116474,1.8561295,0.2121206,0.8089345,0.5552686
1715846877.7001786,1.7308614,1.4116474,1.8561295,0.2121206,0.8089345,0.5552686
1715846877.7039382,1.3276469,1.2792368,1.4134177,0.2121206,0.8089345,0.5552686
1715846877.7081828,1.0938375,1.2220359,1.2410214,0.32077748,1.7133433,0.0737695
1715846877.7120676,1.0938375,1.2220359,1.2410214,0.32077748,1.7133433,0.0737695
1715846877.715834,1.0938375,1.2220359,1.2410214,0.32077748,1.7133433,0.0737695
1715846877.7197843,0.83121395,1.1638583,1.0942649,0.3324954,1.8816549,-0.047670543
1715846877.723417,0.83121395,1.1638583,1.0942649,0.3324954,1.8816549,-0.047670543
1715846877.7269807,0.83121395,1.1638583,1.0942649,0.3324954,1.8816549,-0.047670543
1715846877.7306504,0.6813439,1.1177679,1.037064,0.3324954,1.8816549,-0.047670543
1715846877.7334816,0.6813439,1.1177679,1.037064,0.3324954,1.8816549,-0.047670543
1715846877.735929,0.6813439,1.1177679,1.037064,0.3324954,1.8816549,-0.047670543
1715846877.7384274,0.6813439,1.1177679,1.037064,0.3324954,1.8816549,-0.047670543
1715846877.7406948,0.6813439,1.1177679,1.037064,0.3324954,1.8816549,-0.047670543
1715846877.742816,0.6813439,1.1177679,1.037064,0.3324954,1.8816549,-0.047670543
1715846877.7450612,0.6813439,1.1177679,1.037064,0.3324954,1.8816549,-0.047670543
1715846877.747097,0.6813439,1.1177679,1.037064,0.3324954,1.8816549,-0.047670543
1715846877.749124,0.6813439,1.1177679,1.037064,0.3324954,1.8816549,-0.047670543
1715846877.751142,0.6813439,1.1177679,1.037064,0.3324954,1.8816549,-0.047670543
1715846877.7531726,0.6813439,1.1177679,1.037064,0.3324954,1.8816549,-0.047670543
1715846877.7552044,0.6813439,1.1177679,1.037064,0.3324954,1.8816549,-0.047670543
1715846877.7573173,0.6813439,1.1177679,1.037064,0.3324954,1.8816549,-0.047670543
1715846877.759864,0.6813439,1.1177679,1.037064,0.3324954,1.8816549,-0.047670543
1715846877.7622313,0.33233905,1.0765612,1.1266807,1.1186599,1.0273135,-0.31185588
1715846877.7642448,0.33233905,1.0765612,1.1266807,1.1186599,1.0273135,-0.31185588
1715846877.7677708,0.33233905,1.0765612,1.1266807,1.1186599,1.0273135,-0.31185588
1715846877.7716937,0.35626942,1.0785147,1.1785095,1.3562136,1.0155956,-0.29055062
1715846877.775794,0.35626942,1.0785147,1.1785095,1.3562136,1.0155956,-0.29055062
1715846877.779814,0.35626942,1.0785147,1.1785095,1.3562136,1.0155956,-0.29055062
1715846877.7827992,0.4543717,1.0600786,1.336926,1.7524917,1.146623,-0.27776745
1715846877.7856529,0.4543717,1.0600786,1.336926,1.7524917,1.146623,-0.27776745
1715846877.7884216,0.4543717,1.0600786,1.336926,1.7524917,1.146623,-0.27776745
1715846877.7913554,0.5451484,0.9979939,1.4908862,2.311755,1.3351747,-0.32996538
1715846877.7945175,0.5451484,0.9979939,1.4908862,2.311755,1.3351747,-0.32996538
1715846877.797102,0.6460588,0.9378628,1.5325202,3.1032457,1.4853768,-0.45673174
1715846877.7995303,0.6460588,0.9378628,1.5325202,3.1032457,1.4853768,-0.45673174
1715846877.8019497,0.6460588,0.9378628,1.5325202,3.1032457,1.4853768,-0.45673174
1715846877.8043795,0.6460588,0.9378628,1.5325202,3.1032457,1.4853768,-0.45673174
1715846877.8068027,0.6460588,0.9378628,1.5325202,3.1032457,1.4853768,-0.45673174
1715846877.809185,0.6460588,0.9378628,1.5325202,3.1032457,1.4853768,-0.45673174
1715846877.8118978,0.7641845,0.8777317,1.5848373,3.1032457,1.4853768,-0.45673174
1715846877.8142927,0.7641845,0.8777317,1.5848373,3.1032457,1.4853768,-0.45673174
1715846877.8167033,0.7641845,0.8777317,1.5848373,3.7296207,1.4811158,-0.5834981
1715846877.8193805,0.9326128,0.7589345,1.6260439,4.389019,1.3926989,-0.77524555
1715846877.8217983,0.9326128,0.7589345,1.6260439,4.389019,1.3926989,-0.77524555
1715846877.8242195,0.9326128,0.7589345,1.6260439,4.389019,1.3926989,-0.77524555
1715846877.8266473,0.9326128,0.7589345,1.6260439,4.389019,1.3926989,-0.77524555
1715846877.829169,0.9326128,0.7589345,1.6260439,4.389019,1.3926989,-0.77524555
1715846877.8316798,0.9326128,0.7589345,1.6260439,4.389019,1.3926989,-0.77524555
1715846877.834155,0.9326128,0.7589345,1.6260439,4.389019,1.3926989,-0.77524555
1715846877.8365998,0.9326128,0.7589345,1.6260439,4.389019,1.3926989,-0.77524555
1715846877.8390136,0.9326128,0.7589345,1.6260439,4.389019,1.3926989,-0.77524555
1715846877.841386,0.9326128,0.7589345,1.6260439,4.389019,1.3926989,-0.77524555
1715846877.8439548,0.9326128,0.7589345,1.6260439,4.389019,1.3926989,-0.77524555
1715846877.8464065,0.9326128,0.7589345,1.6260439,4.389019,1.3926989,-0.77524555
1715846877.8488753,0.9326128,0.7589345,1.6260439,4.389019,1.3926989,-0.77524555
1715846877.8513737,1.1644686,0.52427036,1.5276974,5.4297814,1.3777852,-1.2567446
1715846877.854048,1.2635478,0.37006602,1.433258,5.8622785,1.4864421,-1.5443658
1715846877.8564925,1.2635478,0.37006602,1.433258,5.8622785,1.4864421,-1.5443658
1715846877.858944,1.2635478,0.37006602,1.433258,5.8622785,1.4864421,-1.5443658
1715846877.861796,1.2635478,0.37006602,1.433258,5.8622785,1.4864421,-1.5443658
1715846877.864415,1.3245946,0.15432644,1.3024957,6.1935754,1.6259916,-1.8266606
1715846877.866845,1.3245946,0.15432644,1.3024957,6.1935754,1.6259916,-1.8266606
1715846877.8692703,1.3245946,0.15432644,1.3024957,6.1935754,1.6259916,-1.8266606
1715846877.8718657,1.3451064,0.03601764,1.2385185,6.402367,1.6984296,-2.0929766
1715846877.8742864,1.3451064,0.03601764,1.2385185,6.402367,1.6984296,-2.0929766
1715846877.8767185,1.3451064,0.03601764,1.2385185,6.402367,1.6984296,-2.0929766
1715846877.8792212,1.3451064,0.03601764,1.2385185,6.402367,1.6984296,-2.0929766
1715846877.8816469,1.3133619,-0.13180016,1.1222854,6.402367,1.6984296,-2.0929766
1715846877.8840795,1.3133619,-0.13180016,1.1222854,6.402367,1.6984296,-2.0929766
1715846877.8866084,1.3133619,-0.13180016,1.1222854,6.402367,1.6984296,-2.0929766
1715846877.8890612,1.3133619,-0.13180016,1.1222854,6.402367,1.6984296,-2.0929766
1715846877.8915982,1.2401057,-0.24815544,1.0545233,6.5792007,1.6899074,-2.5787368
1715846877.894261,1.2401057,-0.24815544,1.0545233,6.5792007,1.6899074,-2.5787368
1715846877.8968332,1.2401057,-0.24815544,1.0545233,6.5792007,1.6899074,-2.5787368
1715846877.8992891,1.2401057,-0.24815544,1.0545233,6.5792007,1.6899074,-2.5787368
1715846877.9017117,1.2025009,-0.29858014,1.0351104,6.591984,1.6206653,-2.676741
1715846877.9041345,1.2025009,-0.29858014,1.0351104,6.591984,1.6206653,-2.676741
1715846877.906592,1.2025009,-0.29858014,1.0351104,6.591984,1.6206653,-2.676741
1715846877.9090955,1.0312034,-0.42415354,0.9295604,6.6037016,1.3788505,-2.911099
1715846877.91171,1.0312034,-0.42415354,0.9295604,6.6037016,1.3788505,-2.911099
1715846877.9141443,1.0312034,-0.42415354,0.9295604,6.6037016,1.3788505,-2.911099
1715846877.9165733,1.0312034,-0.42415354,0.9295604,6.6037016,1.3788505,-2.911099
1715846877.9189954,1.0312034,-0.42415354,0.9295604,6.6037016,1.3788505,-2.911099
1715846877.9213638,1.0312034,-0.42415354,0.9295604,6.6037016,1.3788505,-2.911099
1715846877.923782,1.0312034,-0.42415354,0.9295604,6.6037016,1.3788505,-2.911099
1715846877.9262228,1.0312034,-0.42415354,0.9295604,6.6037016,1.3788505,-2.911099
1715846877.928742,1.0312034,-0.42415354,0.9295604,6.6037016,1.3788505,-2.911099
1715846877.9311664,1.0312034,-0.42415354,0.9295604,6.6037016,1.3788505,-2.911099
1715846877.9335911,1.0312034,-0.42415354,0.9295604,6.6037016,1.3788505,-2.911099
1715846877.9359868,1.0312034,-0.42415354,0.9295604,6.6037016,1.3788505,-2.911099
1715846877.9384015,1.0312034,-0.42415354,0.9295604,6.6037016,1.3788505,-2.911099
1715846877.940911,1.0312034,-0.42415354,0.9295604,6.6037016,1.3788505,-2.911099
1715846877.943656,0.29503945,-0.38538876,0.5594944,5.917672,0.35619748,-2.6703494
1715846877.946099,0.29503945,-0.38538876,0.5594944,5.917672,0.35619748,-2.6703494
1715846877.9486036,0.19638772,-0.34271702,0.5706049,5.638573,-0.059255283,-2.4285345
1715846877.951293,0.19638772,-0.34271702,0.5706049,5.638573,-0.059255283,-2.4285345
1715846877.9538484,0.19638772,-0.34271702,0.5706049,5.638573,-0.059255283,-2.4285345
1715846877.9563112,0.19638772,-0.34271702,0.5706049,5.638573,-0.059255283,-2.4285345
1715846877.9586976,0.19638772,-0.34271702,0.5706049,5.638573,-0.059255283,-2.4285345
1715846877.9613574,0.12270417,-0.3194582,0.5875759,5.638573,-0.059255283,-2.4285345
1715846877.9638157,0.12270417,-0.3194582,0.5875759,5.638573,-0.059255283,-2.4285345
1715846877.9663606,0.12270417,-0.3194582,0.5875759,5.2817097,-0.7239797,-2.0801933
1715846877.9689837,0.17685273,-0.31994653,0.4936248,4.8918233,-1.339702,-1.7670059
1715846877.9728498,0.17685273,-0.31994653,0.4936248,4.8918233,-1.339702,-1.7670059
1715846877.9766302,0.17685273,-0.31994653,0.4936248,4.8918233,-1.339702,-1.7670059
1715846877.9811647,0.17685273,-0.31994653,0.4936248,4.8918233,-1.339702,-1.7670059
1715846877.9852686,0.26573694,-0.30877498,0.29162082,4.3549304,-1.7050874,-1.5433005
1715846877.9887764,0.26573694,-0.30877498,0.29162082,4.3549304,-1.7050874,-1.5433005
1715846877.9925764,0.3340484,-0.28356263,0.053354945,3.6326818,-1.6592811,-1.3962941
1715846877.9964497,0.3340484,-0.28356263,0.053354945,3.6326818,-1.6592811,-1.3962941
1715846878.0001028,0.3340484,-0.28356263,0.053354945,3.6326818,-1.6592811,-1.3962941
1715846878.0029628,0.3340484,-0.28356263,0.053354945,3.6326818,-1.6592811,-1.3962941
1715846878.005807,0.3340484,-0.28356263,0.053354945,3.6326818,-1.6592811,-1.3962941
1715846878.008715,0.3340484,-0.28356263,0.053354945,3.6326818,-1.6592811,-1.3962941
1715846878.011759,0.3340484,-0.28356263,0.053354945,3.6326818,-1.6592811,-1.3962941
1715846878.0147188,0.3340484,-0.28356263,0.053354945,3.6326818,-1.6592811,-1.3962941
1715846878.017169,0.3340484,-0.28356263,0.053354945,3.6326818,-1.6592811,-1.3962941
1715846878.0195796,0.3340484,-0.28356263,0.053354945,3.6326818,-1.6592811,-1.3962941
1715846878.0220103,0.3340484,-0.28356263,0.053354945,3.6326818,-1.6592811,-1.3962941
1715846878.0244384,0.3340484,-0.28356263,0.053354945,3.6326818,-1.6592811,-1.3962941
1715846878.0268655,0.3340484,-0.28356263,0.053354945,3.6326818,-1.6592811,-1.3962941
1715846878.029355,0.3340484,-0.28356263,0.053354945,3.6326818,-1.6592811,-1.3962941
1715846878.031772,0.3340484,-0.28356263,0.053354945,3.6326818,-1.6592811,-1.3962941
1715846878.0341887,0.35230136,-0.2646381,-0.105977334,2.7634268,-1.2821778,-1.3153341
1715846878.0366306,0.35230136,-0.2646381,-0.105977334,2.7634268,-1.2821778,-1.3153341
1715846878.0390892,0.35230136,-0.2646381,-0.105977334,2.7634268,-1.2821778,-1.3153341
1715846878.041502,0.35230136,-0.2646381,-0.105977334,2.7634268,-1.2821778,-1.3153341
1715846878.0448432,0.35230136,-0.2646381,-0.105977334,2.7634268,-1.2821778,-1.3153341
1715846878.0476677,0.35230136,-0.2646381,-0.105977334,2.7634268,-1.2821778,-1.3153341
1715846878.0501492,-0.32769948,-0.2913156,-0.026555382,-1.3399683,0.73649657,-0.6676539
1715846878.053005,-0.32769948,-0.2913156,-0.026555382,-1.3399683,0.73649657,-0.6676539
1715846878.0559015,-0.32769948,-0.2913156,-0.026555382,-1.3399683,0.73649657,-0.6676539
1715846878.058525,-0.5010115,-0.32086226,0.17782947,-1.9013622,0.7269092,-0.182959
1715846878.0611143,-0.5010115,-0.32086226,0.17782947,-1.9013622,0.7269092,-0.182959
1715846878.0635517,-0.5010115,-0.32086226,0.17782947,-1.9013622,0.7269092,-0.182959
1715846878.0660076,-0.5010115,-0.32086226,0.17782947,-1.9013622,0.7269092,-0.182959
1715846878.0685246,-0.56834614,-0.33545244,0.29363537,-2.0750003,0.5990776,0.17177375
1715846878.0710564,-0.56834614,-0.33545244,0.29363537,-2.0750003,0.5990776,0.17177375
1715846878.0740583,-0.56834614,-0.33545244,0.29363537,-2.0750003,0.5990776,0.17177375
1715846878.0769913,-0.56834614,-0.33545244,0.29363537,-2.0750003,0.5990776,0.17177375
1715846878.0794797,-0.56834614,-0.33545244,0.29363537,-2.0750003,0.5990776,0.17177375
1715846878.082378,-0.56834614,-0.33545244,0.29363537,-2.0750003,0.5990776,0.17177375
1715846878.0854409,-0.56834614,-0.33545244,0.29363537,-2.0750003,0.5990776,0.17177375
1715846878.088394,-0.6181604,-0.38245854,0.30138832,-2.1889834,0.10266477,1.3233236
1715846878.0908918,-0.6181604,-0.38245854,0.30138832,-2.1889834,0.10266477,1.3233236
1715846878.0933971,-0.6181604,-0.38245854,0.30138832,-2.1889834,0.10266477,1.3233236
1715846878.0959437,-0.6181604,-0.38245854,0.30138832,-2.1889834,0.10266477,1.3233236
1715846878.0983849,-0.6181604,-0.38245854,0.30138832,-2.1889834,0.10266477,1.3233236
1715846878.1008327,-0.6181604,-0.38245854,0.30138832,-2.1889834,0.10266477,1.3233236
1715846878.1032608,-0.6181604,-0.38245854,0.30138832,-2.1889834,0.10266477,1.3233236
1715846878.1056857,-0.6181604,-0.38245854,0.30138832,-2.1889834,0.10266477,1.3233236
1715846878.108097,-0.6181604,-0.38245854,0.30138832,-2.1889834,0.10266477,1.3233236
1715846878.1106577,-0.6181604,-0.38245854,0.30138832,-2.1889834,0.10266477,1.3233236
1715846878.1131353,-0.6181604,-0.38245854,0.30138832,-2.1889834,0.10266477,1.3233236
1715846878.1155465,-0.6181604,-0.38245854,0.30138832,-2.1889834,0.10266477,1.3233236
1715846878.1179733,-0.6181604,-0.38245854,0.30138832,-2.1889834,0.10266477,1.3233236
1715846878.1205072,-0.6181604,-0.38245854,0.30138832,-2.1889834,0.10266477,1.3233236
1715846878.1235867,-0.5356251,-0.42220002,0.21323666,-2.2667477,-0.15299848,1.9379807
1715846878.1265242,0.09504995,-0.48184282,0.0475555,-2.7322679,-0.6419544,2.9957874
1715846878.1290023,0.09504995,-0.48184282,0.0475555,-2.7322679,-0.6419544,2.9957874
1715846878.1326249,0.09504995,-0.48184282,0.0475555,-3.137068,-0.9380977,3.3270843
1715846878.1365082,0.09504995,-0.48184282,0.0475555,-3.137068,-0.9380977,3.3270843
1715846878.1401758,0.47042707,-0.52164537,0.13717228,-3.6686344,-1.2491547,3.4666338
1715846878.14297,0.47042707,-0.52164537,0.13717228,-3.6686344,-1.2491547,3.4666338
1715846878.1456316,0.47042707,-0.52164537,0.13717228,-3.6686344,-1.2491547,3.4666338
1715846878.148146,0.47042707,-0.52164537,0.13717228,-3.6686344,-1.2491547,3.4666338
1715846878.1504762,0.47042707,-0.52164537,0.13717228,-3.6686344,-1.2491547,3.4666338
1715846878.1527195,0.63787854,-0.55412227,0.2156175,-3.9764955,-1.3056136,3.4325454
1715846878.154922,0.63787854,-0.55412227,0.2156175,-3.9764955,-1.3056136,3.4325454
1715846878.1571207,0.63787854,-0.55412227,0.2156175,-3.9764955,-1.3056136,3.4325454
1715846878.1593068,0.7560042,-0.55070364,0.3468682,-4.3962092,-1.1820431,3.2674296
1715846878.161613,0.7560042,-0.55070364,0.3468682,-4.3962092,-1.1820431,3.2674296
1715846878.1637902,0.7560042,-0.55070364,0.3468682,-4.3962092,-1.1820431,3.2674296
1715846878.1659591,0.7560042,-0.55070364,0.3468682,-4.3962092,-1.1820431,3.2674296
1715846878.1681733,0.81656265,-0.5279332,0.52512497,-4.565586,-1.0041441,3.1364021
1715846878.1703534,0.81656265,-0.5279332,0.52512497,-4.565586,-1.0041441,3.1364021
1715846878.1725497,0.81656265,-0.5279332,0.52512497,-4.565586,-1.0041441,3.1364021
1715846878.1746626,0.81656265,-0.5279332,0.52512497,-4.565586,-1.0041441,3.1364021
1715846878.1768382,0.7423297,-0.44936588,0.6864108,-4.6859612,-0.5727123,2.9446547
1715846878.1791732,0.7423297,-0.44936588,0.6864108,-4.6859612,-0.5727123,2.9446547
1715846878.181369,0.7423297,-0.44936588,0.6864108,-4.6859612,-0.5727123,2.9446547
1715846878.1835709,0.7423297,-0.44936588,0.6864108,-4.6859612,-0.5727123,2.9446547
1715846878.1857786,0.7423297,-0.44936588,0.6864108,-4.6859612,-0.5727123,2.9446547
1715846878.1879542,0.7423297,-0.44936588,0.6864108,-4.6859612,-0.5727123,2.9446547
1715846878.190138,0.7423297,-0.44936588,0.6864108,-4.6859612,-0.5727123,2.9446547
1715846878.1923144,0.7423297,-0.44936588,0.6864108,-4.6859612,-0.5727123,2.9446547
1715846878.194632,0.7423297,-0.44936588,0.6864108,-4.6859612,-0.5727123,2.9446547
1715846878.1968381,0.7423297,-0.44936588,0.6864108,-4.6859612,-0.5727123,2.9446547
1715846878.1990132,0.7423297,-0.44936588,0.6864108,-4.6859612,-0.5727123,2.9446547
1715846878.2011964,0.7423297,-0.44936588,0.6864108,-4.6859612,-0.5727123,2.9446547
1715846878.2034059,0.7423297,-0.44936588,0.6864108,-4.6859612,-0.5727123,2.9446547
1715846878.2062151,0.7423297,-0.44936588,0.6864108,-4.6859612,-0.5727123,2.9446547
1715846878.2084582,0.7423297,-0.44936588,0.6864108,-4.6859612,-0.5727123,2.9446547
1715846878.210801,0.7052132,-0.16427708,1.0743636,-4.448407,-0.272308,2.8636947
1715846878.2134736,0.7052132,-0.16427708,1.0743636,-4.448407,-0.272308,2.8636947
1715846878.2156968,0.7052132,-0.16427708,1.0743636,-4.448407,-0.272308,2.8636947
1715846878.2178936,0.7052132,-0.16427708,1.0743636,-4.03402,-0.5705818,2.727341
1715846878.2200801,0.7052132,-0.16427708,1.0743636,-4.03402,-0.5705818,2.727341
1715846878.2222495,0.7052132,-0.16427708,1.0743636,-4.03402,-0.5705818,2.727341
1715846878.2245624,0.7052132,-0.16427708,1.0743636,-4.03402,-0.5705818,2.727341
1715846878.22675,0.7052132,-0.16427708,1.0743636,-4.03402,-0.5705818,2.727341
1715846878.2291102,0.83652496,0.08790746,1.1963961,-3.760247,-0.7591334,2.6080315
1715846878.231349,0.83652496,0.08790746,1.1963961,-3.760247,-0.7591334,2.6080315
1715846878.2335455,0.83652496,0.08790746,1.1963961,-3.760247,-0.7591334,2.6080315
1715846878.2357328,0.83652496,0.08790746,1.1963961,-3.760247,-0.7591334,2.6080315
1715846878.2379024,0.83652496,0.08790746,1.1963961,-3.760247,-0.7591334,2.6080315
1715846878.240307,0.86680424,0.17032072,1.1300383,-3.760247,-0.7591334,2.6080315
1715846878.242469,0.86680424,0.17032072,1.1300383,-3.760247,-0.7591334,2.6080315
1715846878.2448096,0.86680424,0.17032072,1.1300383,-3.4449291,-0.8944219,2.461025
1715846878.2470033,0.86680424,0.17032072,1.1300383,-3.4449291,-0.8944219,2.461025
1715846878.2491992,0.91313887,0.25175723,1.0608112,-3.4449291,-0.8944219,2.461025
1715846878.2513337,0.91313887,0.25175723,1.0608112,-3.1786132,-0.83157134,2.299105
1715846878.2535152,0.91313887,0.25175723,1.0608112,-3.1786132,-0.83157134,2.299105
1715846878.2556949,0.91313887,0.25175723,1.0608112,-3.1786132,-0.83157134,2.299105
1715846878.257871,0.91313887,0.25175723,1.0608112,-3.1786132,-0.83157134,2.299105
1715846878.2600477,0.91313887,0.25175723,1.0608112,-3.1786132,-0.83157134,2.299105
1715846878.2622797,0.91313887,0.25175723,1.0608112,-3.1786132,-0.83157134,2.299105
1715846878.2645712,0.91313887,0.25175723,1.0608112,-3.1786132,-0.83157134,2.299105
1715846878.2669287,0.91313887,0.25175723,1.0608112,-3.1786132,-0.83157134,2.299105
1715846878.2692852,0.93023187,0.38557193,0.98236597,-3.0071058,-0.745285,2.1180103
1715846878.271627,0.93023187,0.38557193,0.98236597,-3.0071058,-0.745285,2.1180103
1715846878.2739806,0.93023187,0.38557193,0.98236597,-3.0071058,-0.745285,2.1180103
1715846878.2762916,0.93023187,0.38557193,0.98236597,-3.0071058,-0.745285,2.1180103
1715846878.2787318,0.93023187,0.38557193,0.98236597,-3.0071058,-0.745285,2.1180103
1715846878.2810957,0.93023187,0.38557193,0.98236597,-3.0071058,-0.745285,2.1180103
1715846878.2834055,0.93023187,0.38557193,0.98236597,-3.0071058,-0.745285,2.1180103
1715846878.2857456,0.93023187,0.38557193,0.98236597,-3.0071058,-0.745285,2.1180103
1715846878.288107,0.93023187,0.38557193,0.98236597,-3.0071058,-0.745285,2.1180103
1715846878.2904835,0.93023187,0.38557193,0.98236597,-3.0071058,-0.745285,2.1180103
1715846878.2928429,0.93023187,0.38557193,0.98236597,-3.0071058,-0.745285,2.1180103
1715846878.2952552,0.93023187,0.38557193,0.98236597,-3.0071058,-0.745285,2.1180103
1715846878.2975657,0.93023187,0.38557193,0.98236597,-3.0071058,-0.745285,2.1180103
1715846878.2999156,0.93023187,0.38557193,0.98236597,-3.0071058,-0.745285,2.1180103
1715846878.3022754,0.93023187,0.38557193,0.98236597,-3.0071058,-0.745285,2.1180103
1715846878.3046384,0.93023187,0.38557193,0.98236597,-3.0071058,-0.745285,2.1180103
1715846878.3069756,0.93023187,0.38557193,0.98236597,-3.0071058,-0.745285,2.1180103
1715846878.3093607,0.93023187,0.38557193,0.98236597,-3.0071058,-0.745285,2.1180103
1715846878.3118489,0.93023187,0.38557193,0.98236597,-2.9506469,-0.5854955,1.9422417
1715846878.3142378,0.99469745,0.82730687,1.0012294,-2.9165583,-0.19880481,0.99309194
1715846878.3165944,0.99469745,0.82730687,1.0012294,-2.9165583,-0.19880481,0.99309194
1715846878.3189335,0.99469745,0.82730687,1.0012294,-2.9165583,-0.19880481,0.99309194
1715846878.3213236,1.0234505,0.95196456,1.0375524,-2.9431899,-0.272308,0.72144973
1715846878.3236835,1.0234505,0.95196456,1.0375524,-2.9431899,-0.272308,0.72144973
1715846878.3260286,1.076195,1.1424918,1.1775328,-3.0795436,-0.35326803,0.36458644
1715846878.3285832,1.076195,1.1424918,1.1775328,-3.0795436,-0.35326803,0.36458644
1715846878.3309407,1.076195,1.1424918,1.1775328,-3.0795436,-0.35326803,0.36458644
1715846878.333382,1.076195,1.1424918,1.1775328,-3.0795436,-0.35326803,0.36458644
1715846878.3357522,1.076195,1.1424918,1.1775328,-3.0795436,-0.35326803,0.36458644
1715846878.3380983,1.076195,1.1424918,1.1775328,-3.0795436,-0.35326803,0.36458644
1715846878.340583,1.1333348,1.2375418,1.3673884,-3.149851,-0.37670383,0.07803056
1715846878.342897,1.1333348,1.2375418,1.3673884,-3.149851,-0.37670383,0.07803056
1715846878.3453186,1.1333348,1.2375418,1.3673884,-3.149851,-0.37670383,0.07803056
1715846878.3476646,1.1333348,1.2375418,1.3673884,-3.149851,-0.37670383,0.07803056
1715846878.3500144,1.1333348,1.2375418,1.3673884,-3.149851,-0.37670383,0.07803056
1715846878.3524022,1.1333348,1.2375418,1.3673884,-3.149851,-0.37670383,0.07803056
1715846878.355041,1.1459714,1.3064026,1.4763571,-3.1466553,-0.33835432,-0.13821794
1715846878.3575718,1.1459714,1.3064026,1.4763571,-3.1466553,-0.33835432,-0.13821794
1715846878.3598745,1.1459714,1.3064026,1.4763571,-3.112567,-0.21584903,-0.40453383
1715846878.3623743,1.1503668,1.3810629,1.6463726,-3.112567,-0.21584903,-0.40453383
1715846878.364755,1.1503668,1.3810629,1.6463726,-3.112567,-0.21584903,-0.40453383
1715846878.367111,1.1503668,1.3810629,1.6463726,-3.112567,-0.21584903,-0.40453383
1715846878.3695247,1.1503668,1.3810629,1.6463726,-3.112567,-0.21584903,-0.40453383
1715846878.3718657,1.1503668,1.3810629,1.6463726,-3.112567,-0.21584903,-0.40453383
1715846878.3742087,1.1503668,1.3810629,1.6463726,-3.112567,-0.21584903,-0.40453383
1715846878.376567,1.1503668,1.3810629,1.6463726,-3.112567,-0.21584903,-0.40453383
1715846878.3789647,1.1503668,1.3810629,1.6463726,-3.112567,-0.21584903,-0.40453383
1715846878.3813736,1.1503668,1.3810629,1.6463726,-3.112567,-0.21584903,-0.40453383
1715846878.3837235,1.1503668,1.3810629,1.6463726,-3.112567,-0.21584903,-0.40453383
1715846878.3860707,1.1503668,1.3810629,1.6463726,-3.112567,-0.21584903,-0.40453383
1715846878.3884249,1.1503668,1.3810629,1.6463726,-3.112567,-0.21584903,-0.40453383
1715846878.3909283,0.99372065,1.4673831,2.054654,-2.704571,0.42117858,-0.75500554
1715846878.3933425,0.99372065,1.4673831,2.054654,-2.704571,0.42117858,-0.75500554
1715846878.3960106,0.9399994,1.4955257,2.3380332,-2.328533,0.5106607,-0.7720497
1715846878.398385,0.9399994,1.4955257,2.3380332,-2.328533,0.5106607,-0.7720497
1715846878.4007435,0.9399994,1.4955257,2.3380332,-2.328533,0.5106607,-0.7720497
1715846878.4032373,0.9131999,1.5110316,2.6039534,-1.7192022,0.36578485,-0.752875
1715846878.4055989,0.9131999,1.5110316,2.6039534,-1.7192022,0.36578485,-0.752875
1715846878.4080875,0.9024556,1.5071247,2.671288,-1.1610041,0.19321217,-0.70174235
1715846878.4105985,0.9024556,1.5071247,2.671288,-1.1610041,0.19321217,-0.70174235
1715846878.412989,0.9024556,1.5071247,2.671288,-1.1610041,0.19321217,-0.70174235
1715846878.4153016,0.9024556,1.5071247,2.671288,-1.1610041,0.19321217,-0.70174235
1715846878.4176497,0.9024556,1.5071247,2.671288,-1.1610041,0.19321217,-0.70174235
1715846878.4199908,0.9024556,1.5071247,2.671288,-1.1610041,0.19321217,-0.70174235
1715846878.4224603,1.00593,1.4872844,2.6368577,-0.26724797,0.03555317,-0.5856286
1715846878.4248207,1.00593,1.4872844,2.6368577,-0.26724797,0.03555317,-0.5856286
1715846878.427295,1.00593,1.4872844,2.6368577,-0.26724797,0.03555317,-0.5856286
1715846878.4297078,1.00593,1.4872844,2.6368577,-0.26724797,0.03555317,-0.5856286
1715846878.4320648,1.00593,1.4872844,2.6368577,-0.26724797,0.03555317,-0.5856286
1715846878.4344094,1.00593,1.4872844,2.6368577,-0.26724797,0.03555317,-0.5856286
1715846878.4367733,1.00593,1.4872844,2.6368577,-0.26724797,0.03555317,-0.5856286
1715846878.4391828,1.00593,1.4872844,2.6368577,-0.26724797,0.03555317,-0.5856286
1715846878.4416494,1.00593,1.4872844,2.6368577,-0.26724797,0.03555317,-0.5856286
1715846878.444371,1.1391953,1.3437634,2.4532897,0.795885,0.40200382,-0.50360334
1715846878.4467208,1.1391953,1.3437634,2.4532897,0.795885,0.40200382,-0.50360334
1715846878.4498603,1.1391953,1.3437634,2.4532897,0.795885,0.40200382,-0.50360334
1715846878.4522564,1.1391953,1.3437634,2.4532897,0.795885,0.40200382,-0.50360334
1715846878.4545743,1.1391953,1.3437634,2.4532897,0.795885,0.40200382,-0.50360334
1715846878.4569414,1.1391953,1.3437634,2.4532897,0.795885,0.40200382,-0.50360334
1715846878.4592419,1.1391953,1.3437634,2.4532897,0.795885,0.40200382,-0.50360334
1715846878.4618068,1.1391953,1.3437634,2.4532897,0.795885,0.40200382,-0.50360334
1715846878.464118,1.1391953,1.3437634,2.4532897,0.795885,0.40200382,-0.50360334
1715846878.4665873,1.1391953,1.3437634,2.4532897,0.795885,0.40200382,-0.50360334
1715846878.468918,1.1391953,1.3437634,2.4532897,0.795885,0.40200382,-0.50360334
1715846878.4712696,1.1391953,1.3437634,2.4532897,0.795885,0.40200382,-0.50360334
1715846878.473811,1.1391953,1.3437634,2.4532897,0.795885,0.40200382,-0.50360334
1715846878.4766107,1.1391953,1.3437634,2.4532897,0.795885,0.40200382,-0.50360334
1715846878.479083,1.1391953,1.3437634,2.4532897,0.795885,0.40200382,-0.50360334
1715846878.481412,1.1391953,1.3437634,2.4532897,0.795885,0.40200382,-0.50360334
1715846878.4839084,1.1147766,0.96215945,1.6376429,2.5354602,1.4640715,-0.4194475
1715846878.4863167,1.1147766,0.96215945,1.6376429,2.5354602,1.4640715,-0.4194475
1715846878.4886754,1.1147766,0.96215945,1.6376429,2.5354602,1.4640715,-0.4194475
1715846878.4911,1.0879769,0.92577547,1.5514446,2.6537046,1.4523537,-0.42690435
1715846878.4934864,1.0879769,0.92577547,1.5514446,2.6537046,1.4523537,-0.42690435
1715846878.4959548,1.0879769,0.92577547,1.5514446,2.6537046,1.4523537,-0.42690435
1715846878.498328,1.0469536,0.8239494,1.3800251,2.9306731,1.3554146,-0.4514054
1715846878.5008085,1.0469536,0.8239494,1.3800251,2.9306731,1.3554146,-0.4514054
1715846878.5031567,1.0469536,0.8239494,1.3800251,2.9306731,1.3554146,-0.4514054
1715846878.505509,1.0469536,0.8239494,1.3800251,2.9306731,1.3554146,-0.4514054
1715846878.5078633,1.0469536,0.8239494,1.3800251,2.9306731,1.3554146,-0.4514054
1715846878.5102713,1.0469536,0.8239494,1.3800251,2.9306731,1.3554146,-0.4514054
1715846878.5126984,1.0469536,0.8239494,1.3800251,2.9306731,1.3554146,-0.4514054
1715846878.5151052,1.0469536,0.8239494,1.3800251,2.9306731,1.3554146,-0.4514054
1715846878.5174737,1.0469536,0.8239494,1.3800251,2.9306731,1.3554146,-0.4514054
1715846878.5198033,1.0537907,0.79147243,1.344618,3.0180247,1.3277178,-0.47377595
1715846878.5221236,1.0537907,0.79147243,1.344618,3.0180247,1.3277178,-0.47377595
1715846878.5245209,1.0596513,0.71485865,1.306891,3.237469,1.3096083,-0.5483444
1715846878.5269141,1.0596513,0.71485865,1.306891,3.237469,1.3096083,-0.5483444
1715846878.5294244,1.0777211,0.64648616,1.2473092,3.4878058,1.3042821,-0.6601971
1715846878.5318236,1.0777211,0.64648616,1.2473092,3.4878058,1.3042821,-0.6601971
1715846878.5341725,1.0777211,0.64648616,1.2473092,3.4878058,1.3042821,-0.6601971
1715846878.5365405,1.0777211,0.64648616,1.2473092,3.4878058,1.3042821,-0.6601971
1715846878.5388823,1.1163027,0.56889564,1.1532972,3.8105807,1.2723241,-0.8583361
1715846878.5412488,1.1163027,0.56889564,1.1532972,3.8105807,1.2723241,-0.8583361
1715846878.5436962,1.1163027,0.56889564,1.1532972,3.8105807,1.2723241,-0.8583361
1715846878.546124,1.1163027,0.56889564,1.1532972,3.8105807,1.2723241,-0.8583361
1715846878.5485053,1.1163027,0.56889564,1.1532972,3.8105807,1.2723241,-0.8583361
1715846878.550855,1.1163027,0.56889564,1.1532972,3.8105807,1.2723241,-0.8583361
1715846878.5531707,1.1163027,0.56889564,1.1532972,3.8105807,1.2723241,-0.8583361
1715846878.5555117,1.1163027,0.56889564,1.1532972,3.8105807,1.2723241,-0.8583361
1715846878.5578666,1.1163027,0.56889564,1.1532972,3.8105807,1.2723241,-0.8583361
1715846878.5602417,1.1163027,0.56889564,1.1532972,3.8105807,1.2723241,-0.8583361
1715846878.5626526,1.1163027,0.56889564,1.1532972,3.8105807,1.2723241,-0.8583361
1715846878.565034,1.1163027,0.56889564,1.1532972,3.8105807,1.2723241,-0.8583361
1715846878.5673342,1.1163027,0.56889564,1.1532972,3.8105807,1.2723241,-0.8583361
1715846878.5697095,1.1163027,0.56889564,1.1532972,3.8105807,1.2723241,-0.8583361
1715846878.5721421,1.1163027,0.56889564,1.1532972,3.8105807,1.2723241,-0.8583361
1715846878.5744507,1.1163027,0.56889564,1.1532972,3.8105807,1.2723241,-0.8583361
1715846878.5768213,1.1065352,0.5126715,1.07241,3.977827,1.2478231,-1.0181257
1715846878.5792913,1.1065352,0.5126715,1.07241,3.977827,1.2478231,-1.0181257
1715846878.5816586,1.1065352,0.5126715,1.07241,3.977827,1.2478231,-1.0181257
1715846878.5840008,1.1065352,0.5126715,1.07241,3.977827,1.2478231,-1.0181257
1715846878.5864606,1.041093,0.098041244,0.83121395,4.572244,1.5152042,-1.800029
1715846878.5888188,1.041093,0.098041244,0.83121395,4.572244,1.5152042,-1.800029
1715846878.5911672,1.041093,0.098041244,0.83121395,4.572244,1.5152042,-1.800029
1715846878.5936024,1.041093,0.098041244,0.83121395,4.572244,1.5152042,-1.800029
1715846878.5960252,1.041093,0.098041244,0.83121395,4.572244,1.5152042,-1.800029
1715846878.5983832,1.041093,0.098041244,0.83121395,4.572244,1.5152042,-1.800029
1715846878.6008346,0.90678996,-0.09688135,0.7823154,4.9653263,1.4832463,-2.083389
1715846878.603194,0.90678996,-0.09688135,0.7823154,4.9653263,1.4832463,-2.083389
1715846878.6056437,0.90678996,-0.09688135,0.7823154,4.9653263,1.4832463,-2.083389
1715846878.608006,0.90678996,-0.09688135,0.7823154,4.9653263,1.4832463,-2.083389
1715846878.6107192,0.85355705,-0.2161669,0.75179195,5.1986194,1.3330442,-2.212286
1715846878.6131654,0.85355705,-0.2161669,0.75179195,5.1986194,1.3330442,-2.212286
1715846878.6154687,0.85355705,-0.2161669,0.75179195,5.1986194,1.3330442,-2.212286
1715846878.6178296,0.85355705,-0.2161669,0.75179195,5.1986194,1.3330442,-2.212286
1715846878.620172,0.85355705,-0.2161669,0.75179195,5.1986194,1.3330442,-2.212286
1715846878.6226175,0.78524566,-0.3252576,0.6825038,5.420194,1.187103,-2.329465
1715846878.6250079,0.78524566,-0.3252576,0.6825038,5.420194,1.187103,-2.329465
1715846878.627463,0.78524566,-0.3252576,0.6825038,5.420194,1.187103,-2.329465
1715846878.629903,0.6837247,-0.430014,0.59777075,5.601289,1.0475535,-2.3816628
1715846878.6322145,0.6837247,-0.430014,0.59777075,5.601289,1.0475535,-2.3816628
1715846878.6349247,0.6837247,-0.430014,0.59777075,5.601289,1.0475535,-2.3816628
1715846878.6373196,0.6837247,-0.430014,0.59777075,5.601289,1.0475535,-2.3816628
1715846878.639676,0.6837247,-0.430014,0.59777075,5.601289,1.0475535,-2.3816628
1715846878.6420205,0.6837247,-0.430014,0.59777075,5.601289,1.0475535,-2.3816628
1715846878.6445682,0.6837247,-0.430014,0.59777075,5.601289,1.0475535,-2.3816628
1715846878.646931,0.6837247,-0.430014,0.59777075,5.601289,1.0475535,-2.3816628
1715846878.6493242,0.6837247,-0.430014,0.59777075,5.601289,1.0475535,-2.3816628
1715846878.6516786,0.6837247,-0.430014,0.59777075,5.601289,1.0475535,-2.3816628
1715846878.6539803,0.6837247,-0.430014,0.59777075,5.601289,1.0475535,-2.3816628
1715846878.6563914,0.6837247,-0.430014,0.59777075,5.601289,1.0475535,-2.3816628
1715846878.6587405,0.6837247,-0.430014,0.59777075,5.601289,1.0475535,-2.3816628
1715846878.6612935,0.6837247,-0.430014,0.59777075,5.601289,1.0475535,-2.3816628
1715846878.6636648,0.6837247,-0.430014,0.59777075,5.601289,1.0475535,-2.3816628
1715846878.6660132,0.6837247,-0.430014,0.59777075,5.601289,1.0475535,-2.3816628
1715846878.6683745,0.6837247,-0.430014,0.59777075,5.601289,1.0475535,-2.3816628
1715846878.6709332,0.3219611,-0.5371513,0.1327769,5.5948973,0.67151546,-2.2463744
1715846878.6738765,0.3219611,-0.5371513,0.1327769,5.5948973,0.67151546,-2.2463744
1715846878.6768649,0.19016093,-0.50662786,0.0039680456,5.3765182,0.63849235,-2.1952417
1715846878.6792898,0.19016093,-0.50662786,0.0039680456,5.3765182,0.63849235,-2.1952417
1715846878.6816428,0.19016093,-0.50662786,0.0039680456,5.3765182,0.63849235,-2.1952417
1715846878.6839886,0.19016093,-0.50662786,0.0039680456,5.3765182,0.63849235,-2.1952417
1715846878.6864164,0.19016093,-0.50662786,0.0039680456,5.3765182,0.63849235,-2.1952417
1715846878.68899,0.019290805,-0.44551992,-0.15347178,5.02072,0.6278397,-2.074867
1715846878.6912906,0.019290805,-0.44551992,-0.15347178,5.02072,0.6278397,-2.074867
1715846878.6937866,0.019290805,-0.44551992,-0.15347178,5.02072,0.6278397,-2.074867
1715846878.6961944,0.019290805,-0.44551992,-0.15347178,5.02072,0.6278397,-2.074867
1715846878.6985486,0.019290805,-0.44551992,-0.15347178,5.02072,0.6278397,-2.074867
1715846878.7009308,-0.20230927,-0.34558624,-0.2590218,4.4241724,0.6416881,-1.7936375
1715846878.7032957,-0.20230927,-0.34558624,-0.2590218,4.4241724,0.6416881,-1.7936375
1715846878.7056546,-0.20230927,-0.34558624,-0.2590218,4.4241724,0.6416881,-1.7936375
1715846878.7079582,-0.20230927,-0.34558624,-0.2590218,4.4241724,0.6416881,-1.7936375
1715846878.7104378,-0.20230927,-0.34558624,-0.2590218,4.4241724,0.6416881,-1.7936375
1715846878.7128565,-0.20230927,-0.34558624,-0.2590218,4.4241724,0.6416881,-1.7936375
1715846878.7152245,-0.20230927,-0.34558624,-0.2590218,4.4241724,0.6416881,-1.7936375
1715846878.7175841,-0.20230927,-0.34558624,-0.2590218,4.4241724,0.6416881,-1.7936375
1715846878.7199335,-0.20230927,-0.34558624,-0.2590218,4.4241724,0.6416881,-1.7936375
1715846878.7222772,-0.20230927,-0.34558624,-0.2590218,4.4241724,0.6416881,-1.7936375
1715846878.7246602,-0.20230927,-0.34558624,-0.2590218,4.4241724,0.6416881,-1.7936375
1715846878.727106,-0.20230927,-0.34558624,-0.2590218,4.4241724,0.6416881,-1.7936375
1715846878.729632,-0.20230927,-0.34558624,-0.2590218,4.4241724,0.6416881,-1.7936375
1715846878.7326021,-0.20230927,-0.34558624,-0.2590218,4.4241724,0.6416881,-1.7936375
1715846878.7353096,-0.20230927,-0.34558624,-0.2590218,4.4241724,0.6416881,-1.7936375
1715846878.7381597,-0.20230927,-0.34558624,-0.2590218,4.4241724,0.6416881,-1.7936375
1715846878.7410994,-0.20230927,-0.34558624,-0.2590218,4.4241724,0.6416881,-1.7936375
1715846878.7440028,-0.20230927,-0.34558624,-0.2590218,4.4241724,0.6416881,-1.7936375
1715846878.7464187,-0.20230927,-0.34558624,-0.2590218,4.4241724,0.6416881,-1.7936375
1715846878.7487452,-0.20230927,-0.34558624,-0.2590218,4.4241724,0.6416881,-1.7936375
1715846878.751647,-0.5367239,-0.16037008,-0.38691494,2.210555,0.028096326,-0.53023493
1715846878.7541916,-0.5367239,-0.16037008,-0.38691494,1.6779232,-0.15619427,-0.20532954
1715846878.756623,-0.5367239,-0.16037008,-0.38691494,1.6779232,-0.15619427,-0.20532954
1715846878.7589982,-0.5337936,-0.094927855,-0.3679904,0.90241134,-0.41292277,0.2569948
1715846878.7614954,-0.5337936,-0.094927855,-0.3679904,0.90241134,-0.41292277,0.2569948
1715846878.7643418,-0.5337936,-0.094927855,-0.3679904,0.90241134,-0.41292277,0.2569948
1715846878.7668338,-0.5337936,-0.094927855,-0.3679904,0.90241134,-0.41292277,0.2569948
1715846878.769803,-0.5337936,-0.094927855,-0.3679904,0.90241134,-0.41292277,0.2569948
1715846878.772742,-0.4278774,-0.07264575,-0.30700463,0.048070017,-0.66432494,0.7193192
1715846878.7752962,-0.4278774,-0.07264575,-0.30700463,0.048070017,-0.66432494,0.7193192
1715846878.7780976,-0.19742551,-0.11531749,-0.10890759,-0.9756482,-0.7037397,1.1901656
1715846878.7803903,-0.19742551,-0.11531749,-0.10890759,-0.9756482,-0.7037397,1.1901656
1715846878.7825456,-0.19742551,-0.11531749,-0.10890759,-0.9756482,-0.7037397,1.1901656
1715846878.7847078,-0.19742551,-0.11531749,-0.10890759,-0.9756482,-0.7037397,1.1901656
1715846878.7867181,-0.19742551,-0.11531749,-0.10890759,-0.9756482,-0.7037397,1.1901656
1715846878.788914,-0.07099749,-0.1744719,0.031561222,-1.654221,-0.55992913,1.4511552
1715846878.7907774,-0.07099749,-0.1744719,0.031561222,-1.654221,-0.55992913,1.4511552
1715846878.7926893,-0.07099749,-0.1744719,0.031561222,-1.654221,-0.55992913,1.4511552
1715846878.7947037,-0.07099749,-0.1744719,0.031561222,-1.654221,-0.55992913,1.4511552
